"","workerid","trial","criticalComplicated","criticalSimple","langCondition","objCondition","response","responseSide","responseValue","word","criticalSimple_c.norms","criticalComplicated_c.norms","criticalSimple_rt.norms","criticalComplicated_rt.norms","c.ratio","rt.ratio"
"1","1","0","5-6","2-1","""short""","""2-5""","""5-6""","""right""","""complex""","""wugnum""",0.396717626087868,0.598802900536869,7.25000948926994,7.46635694988485,0.662517876470175,0.971023691732519
"2","1","1","2-1","2-2","""short""","""2-2""","""2-1""","""left""","""complex""","""vatrus""",0.400489205783323,0.396717626087868,7.22323860108545,7.25000948926994,1.00950696275496,0.996307468531716
"3","1","2","4-4","2-7","""short""","""2-4""","""2-7""","""right""","""simple""","""bugorn""",0.498480635229298,0.599862745098039,7.25324083665048,7.44415965744716,0.830991154731285,0.974353207133906
"4","1","3","5-8","3-5","""long""","""3-5""","""5-8""","""right""","""complex""","""mipatorun""",0.545940690325717,0.627812012463534,7.38057144653556,7.5809576218774,0.869592616081757,0.973567168511329
"5","1","4","4-3","3-6","""long""","""3-4""","""4-3""","""left""","""complex""","""gaburatum""",0.52237068011997,0.59194499618029,7.37717323948312,7.51389426853832,0.882464897060926,0.981804238365761
"6","1","5","5-5","4-8","""long""","""4-5""","""4-8""","""left""","""simple""","""tiburalex""",0.59644761338879,0.654049197860962,7.48492849833601,7.41937065134264,0.911930807864981,1.00883603880627
"7","1","6","3-7","1-3","""short""","""1-3""","""1-3""","""left""","""simple""","""gronan""",0.240463209407226,0.491521184697655,7.12022004272548,7.4576421040624,0.489222472791564,0.954754859963967
"8","1","7","5-2","1-4","""long""","""1-5""","""5-2""","""right""","""complex""","""fepolopus""",0.205391265597148,0.732388591800357,7.106017880143,7.40911860957558,0.280440285248375,0.959090852042664
"9","10","0","5-3","1-5","""short""","""1-5""","""5-3""","""left""","""complex""","""vatrus""",0.171708853238265,0.650860276977924,7.13330511343712,7.49631198228932,0.263818302194665,0.951575271985767
"10","10","1","5-7","2-1","""short""","""2-5""","""5-7""","""left""","""complex""","""bugorn""",0.396717626087868,0.657452317290553,7.25000948926994,7.53194766740618,0.603416575855711,0.962567692901492
"11","10","2","2-6","2-3","""long""","""2-2""","""2-3""","""right""","""simple""","""fepolopus""",0.393164349376114,0.362726450020568,7.2537688186413,7.30024971724876,1.08391419857532,0.993632971417726
"12","10","3","5-4","5-6","""short""","""5-5""","""5-6""","""right""","""simple""","""ratum""",0.598802900536869,0.614266488413547,7.46635694988485,7.52245949482209,0.974825929513727,0.992541994413415
"13","10","4","3-8","1-2","""long""","""1-3""","""3-8""","""right""","""complex""","""mipatorun""",0.067770971422087,0.592708884510742,7.12566153316537,7.37820860586072,0.114341075683435,0.965771220876739
"14","10","5","5-5","4-4","""short""","""4-5""","""4-4""","""left""","""simple""","""wugnum""",0.599862745098039,0.654049197860962,7.44415965744716,7.41937065134264,0.917152328998893,1.00334111978892
"15","10","6","4-2","1-7","""long""","""1-4""","""4-2""","""right""","""complex""","""tiburalex""",0.226620320855615,0.601591200602591,7.21094692940482,7.38357413673939,0.376701521944832,0.976620102387053
"16","10","7","3-1","2-8","""long""","""2-3""","""3-1""","""left""","""complex""","""kibagronan""",0.388259920156472,0.589474738918958,7.14928546016887,7.26311607655564,0.658654043205489,0.984327578523191
"17","100","0","1-7","1-8","""short""","""1-1""","""1-7""","""left""","""complex""","""torun""",0.213287175157144,0.226620320855615,7.15638039732531,7.21094692940482,0.941165268639056,0.992432820181078
"18","100","1","3-8","1-5","""long""","""1-3""","""1-5""","""right""","""simple""","""fepolopus""",0.171708853238265,0.592708884510742,7.13330511343712,7.37820860586072,0.289701837994219,0.966807187827535
"19","100","2","3-1","2-6","""long""","""2-3""","""3-1""","""right""","""complex""","""pakuwugnum""",0.362726450020568,0.589474738918958,7.30024971724876,7.26311607655564,0.615338412441175,1.00511263214049
"20","100","3","2-4","1-1","""short""","""1-2""","""1-1""","""right""","""simple""","""bugorn""",0.198905525846702,0.409232560903149,7.04719236357878,7.29336768842468,0.486045209618049,0.966246686666215
"21","100","4","5-6","2-2","""long""","""2-5""","""2-2""","""left""","""simple""","""kibagronan""",0.400489205783323,0.598802900536869,7.22323860108545,7.46635694988485,0.668816409246275,0.967438156194347
"22","100","5","4-2","1-3","""short""","""1-4""","""1-3""","""left""","""simple""","""ralex""",0.240463209407226,0.601591200602591,7.12022004272548,7.38357413673939,0.399711979108676,0.96433243722664
"23","100","6","4-5","2-4","""short""","""2-4""","""2-4""","""right""","""simple""","""vatrus""",0.409232560903149,0.60023659050397,7.29336768842468,7.45011405562092,0.681785428241803,0.978960541271448
"24","100","7","4-3","3-7","""long""","""3-4""","""3-7""","""left""","""simple""","""gaburatum""",0.491521184697655,0.59194499618029,7.4576421040624,7.51389426853832,0.830349420755896,0.99251358051291
"25","101","0","5-6","4-5","""short""","""4-5""","""4-5""","""right""","""simple""","""lopus""",0.60023659050397,0.598802900536869,7.45011405562092,7.46635694988485,1.00239426022455,0.997824522136705
"26","101","1","4-3","1-8","""short""","""1-4""","""4-3""","""right""","""complex""","""torun""",0.213287175157144,0.59194499618029,7.15638039732531,7.51389426853832,0.360315868084782,0.952419629763761
"27","101","2","2-4","1-2","""short""","""1-2""","""2-4""","""right""","""complex""","""vatrus""",0.067770971422087,0.409232560903149,7.12566153316537,7.29336768842468,0.165605032191283,0.977005662894869
"28","101","3","1-2","1-1","""long""","""1-1""","""1-1""","""right""","""simple""","""kibagronan""",0.198905525846702,0.067770971422087,7.04719236357878,7.12566153316537,2.93496642696607,0.988987805662483
"29","101","4","5-8","3-7","""long""","""3-5""","""5-8""","""right""","""complex""","""tupabugorn""",0.491521184697655,0.627812012463534,7.4576421040624,7.5809576218774,0.782911404910725,0.983733517061336
"30","101","5","3-5","2-4","""short""","""2-3""","""2-4""","""right""","""simple""","""ratum""",0.409232560903149,0.545940690325717,7.29336768842468,7.38057144653556,0.749591609775403,0.988184687494379
"31","101","6","2-7","2-6","""long""","""2-2""","""2-6""","""left""","""simple""","""tiburalex""",0.362726450020568,0.498480635229298,7.30024971724876,7.25324083665048,0.727664074360113,1.00648108640771
"32","101","7","4-1","2-3","""long""","""2-4""","""4-1""","""right""","""complex""","""pakuwugnum""",0.393164349376114,0.559609180035651,7.2537688186413,7.47238209549203,0.70256951351489,0.97074383054065
"33","102","0","4-8","1-6","""long""","""1-4""","""4-8""","""right""","""complex""","""pakuwugnum""",0.096151633986928,0.59644761338879,7.07781498740677,7.48492849833601,0.161207173653744,0.945608897797788
"34","102","1","4-4","3-3","""long""","""3-4""","""4-4""","""right""","""complex""","""tiburalex""",0.437312451087946,0.599862745098039,7.35231805220081,7.44415965744716,0.729020854623125,0.987662595984965
"35","102","2","5-1","3-8","""short""","""3-5""","""3-8""","""right""","""simple""","""ratum""",0.592708884510742,0.643812070282658,7.37820860586072,7.55152734409631,0.920624063867769,0.977048518751496
"36","102","3","4-5","4-2","""short""","""4-4""","""4-5""","""right""","""complex""","""torun""",0.601591200602591,0.60023659050397,7.38357413673939,7.45011405562092,1.00225679360447,0.991068603999246
"37","102","4","5-3","2-1","""long""","""2-5""","""5-3""","""left""","""complex""","""fepolopus""",0.396717626087868,0.650860276977924,7.25000948926994,7.49631198228932,0.609528097074703,0.967143510888916
"38","102","5","5-7","5-5","""long""","""5-5""","""5-7""","""left""","""complex""","""kibagronan""",0.654049197860962,0.657452317290553,7.41937065134264,7.53194766740618,0.994823777572774,0.98505339906294
"39","102","6","1-2","1-7","""short""","""1-1""","""1-7""","""left""","""simple""","""bugorn""",0.226620320855615,0.067770971422087,7.21094692940482,7.12566153316537,3.34391430579019,1.01196876891254
"40","102","7","5-6","1-4","""short""","""1-5""","""5-6""","""left""","""complex""","""vatrus""",0.205391265597148,0.598802900536869,7.106017880143,7.46635694988485,0.343003124088077,0.951738301267875
"41","103","0","5-5","5-7","""long""","""5-5""","""5-5""","""right""","""complex""","""binivatrus""",0.657452317290553,0.654049197860962,7.53194766740618,7.41937065134264,1.00520315511543,1.01517339156565
"42","103","1","3-4","2-6","""long""","""2-3""","""2-6""","""right""","""simple""","""tupabugorn""",0.362726450020568,0.454706120023767,7.30024971724876,7.34365297144576,0.79771622603542,0.994089691551907
"43","103","2","3-8","1-4","""short""","""1-3""","""3-8""","""left""","""complex""","""wugnum""",0.205391265597148,0.592708884510742,7.106017880143,7.37820860586072,0.346529756790621,0.963108833016525
"44","103","3","4-7","1-3","""short""","""1-4""","""1-3""","""left""","""simple""","""gronan""",0.240463209407226,0.596326967150497,7.12022004272548,7.40403330391097,0.403240541940039,0.961667749247485
"45","103","4","5-2","1-8","""long""","""1-5""","""5-2""","""right""","""complex""","""gaburatum""",0.213287175157144,0.732388591800357,7.15638039732531,7.40911860957558,0.291221323686708,0.965888221586353
"46","103","5","2-3","1-1","""long""","""1-2""","""2-3""","""right""","""complex""","""tiburalex""",0.198905525846702,0.393164349376114,7.04719236357878,7.2537688186413,0.505909363761826,0.97152150003297
"47","103","6","4-1","4-2","""short""","""4-4""","""4-1""","""right""","""complex""","""lopus""",0.601591200602591,0.559609180035651,7.38357413673939,7.47238209549203,1.07502024996135,0.988115174302152
"48","103","7","4-6","2-5","""short""","""2-4""","""2-5""","""right""","""simple""","""torun""",0.365537163309983,0.614648336563144,7.28993416391881,7.4808403912451,0.594709432313628,0.974480644240223
"49","104","0","5-3","5-8","""short""","""5-5""","""5-3""","""left""","""complex""","""wugnum""",0.627812012463534,0.650860276977924,7.5809576218774,7.49631198228932,0.964587999406865,1.01129163777976
"50","104","1","4-4","2-7","""long""","""2-4""","""2-7""","""right""","""simple""","""tupabugorn""",0.498480635229298,0.599862745098039,7.25324083665048,7.44415965744716,0.830991154731285,0.974353207133906
"51","104","2","4-5","4-1","""short""","""4-4""","""4-5""","""right""","""complex""","""torun""",0.559609180035651,0.60023659050397,7.47238209549203,7.45011405562092,0.932314338860602,1.00298895288111
"52","104","3","5-6","2-3","""short""","""2-5""","""2-3""","""left""","""simple""","""ratum""",0.393164349376114,0.598802900536869,7.2537688186413,7.46635694988485,0.656583909369201,0.971527194230001
"53","104","4","3-7","2-5","""long""","""2-3""","""2-5""","""left""","""simple""","""tiburalex""",0.365537163309983,0.491521184697655,7.28993416391881,7.4576421040624,0.743685470108135,0.977511935032088
"54","104","5","4-8","3-6","""long""","""3-4""","""4-8""","""left""","""complex""","""kibagronan""",0.52237068011997,0.59644761338879,7.37717323948312,7.48492849833601,0.875803118989876,0.985603702309669
"55","104","6","4-1","1-2","""long""","""1-4""","""4-1""","""right""","""complex""","""fepolopus""",0.067770971422087,0.559609180035651,7.12566153316537,7.47238209549203,0.121104109510444,0.953599727918647
"56","104","7","3-2","3-4","""short""","""3-3""","""3-2""","""right""","""complex""","""vatrus""",0.454706120023767,0.500260812458955,7.34365297144576,7.34357497749828,0.908938115277767,1.00001062070554
"57","105","0","5-3","3-4","""long""","""3-5""","""3-4""","""left""","""simple""","""binivatrus""",0.454706120023767,0.650860276977924,7.34365297144576,7.49631198228932,0.698623246966399,0.979635451245328
"58","105","1","5-2","4-8","""short""","""4-5""","""5-2""","""right""","""complex""","""lopus""",0.59644761338879,0.732388591800357,7.48492849833601,7.40911860957558,0.814386816051576,1.01023197127152
"59","105","2","4-4","3-3","""short""","""3-4""","""3-3""","""right""","""simple""","""bugorn""",0.437312451087946,0.599862745098039,7.35231805220081,7.44415965744716,0.729020854623125,0.987662595984965
"60","105","3","2-7","1-1","""short""","""1-2""","""1-1""","""right""","""simple""","""wugnum""",0.198905525846702,0.498480635229298,7.04719236357878,7.25324083665048,0.399023576422797,0.971592219573002
"61","105","4","5-6","1-2","""long""","""1-5""","""5-6""","""right""","""complex""","""gaburatum""",0.067770971422087,0.598802900536869,7.12566153316537,7.46635694988485,0.113177426764843,0.95436925678664
"62","105","5","4-1","1-7","""long""","""1-4""","""4-1""","""left""","""complex""","""mipatorun""",0.226620320855615,0.559609180035651,7.21094692940482,7.47238209549203,0.404961764281954,0.965013142697169
"63","105","6","3-5","1-6","""short""","""1-3""","""1-6""","""left""","""simple""","""ralex""",0.096151633986928,0.545940690325717,7.07781498740677,7.38057144653556,0.176121025032156,0.958979265857401
"64","105","7","4-8","2-5","""long""","""2-4""","""4-8""","""left""","""complex""","""kibagronan""",0.365537163309983,0.59644761338879,7.28993416391881,7.48492849833601,0.612857114530376,0.973948403854419
"65","106","0","4-6","2-8","""short""","""2-4""","""4-6""","""left""","""complex""","""wugnum""",0.388259920156472,0.614648336563144,7.14928546016887,7.4808403912451,0.631678143517737,0.955679453946878
"66","106","1","3-7","2-4","""short""","""2-3""","""2-4""","""left""","""simple""","""bugorn""",0.409232560903149,0.491521184697655,7.29336768842468,7.4576421040624,0.832583769822407,0.977972338529328
"67","106","2","5-2","3-6","""long""","""3-5""","""5-2""","""left""","""complex""","""mipatorun""",0.52237068011997,0.732388591800357,7.37717323948312,7.40911860957558,0.713242513562205,0.995688371076801
"68","106","3","5-4","1-3","""long""","""1-5""","""1-3""","""left""","""simple""","""gaburatum""",0.240463209407226,0.614266488413547,7.12022004272548,7.52245949482209,0.391463988257385,0.946528199670137
"69","106","4","1-1","1-7","""short""","""1-1""","""1-7""","""right""","""simple""","""ralex""",0.226620320855615,0.198905525846702,7.21094692940482,7.04719236357878,1.139336475902,1.02323685197985
"70","106","5","4-3","1-2","""short""","""1-4""","""1-2""","""left""","""simple""","""gronan""",0.067770971422087,0.59194499618029,7.12566153316537,7.51389426853832,0.114488629618293,0.94833135502072
"71","106","6","3-8","3-5","""long""","""3-3""","""3-8""","""right""","""complex""","""binivatrus""",0.545940690325717,0.592708884510742,7.38057144653556,7.37820860586072,0.921094157001493,1.00032024584843
"72","106","7","4-5","4-1","""long""","""4-4""","""4-1""","""left""","""simple""","""fepolopus""",0.559609180035651,0.60023659050397,7.47238209549203,7.45011405562092,0.932314338860602,1.00298895288111
"73","107","0","1-4","1-1","""long""","""1-1""","""1-4""","""left""","""complex""","""gaburatum""",0.198905525846702,0.205391265597148,7.04719236357878,7.106017880143,0.968422514309021,0.991721732543257
"74","107","1","2-8","2-7","""long""","""2-2""","""2-7""","""right""","""simple""","""pakuwugnum""",0.498480635229298,0.388259920156472,7.25324083665048,7.14928546016887,1.28388383490216,1.01454066662477
"75","107","2","5-2","1-6","""long""","""1-5""","""5-2""","""right""","""complex""","""mipatorun""",0.096151633986928,0.732388591800357,7.07781498740677,7.40911860957558,0.131284996876546,0.955284340874145
"76","107","3","5-7","5-4","""long""","""5-5""","""5-7""","""left""","""complex""","""kibagronan""",0.614266488413547,0.657452317290553,7.52245949482209,7.53194766740618,0.934313367310073,0.998740276353068
"77","107","4","4-5","1-8","""short""","""1-4""","""1-8""","""left""","""simple""","""vatrus""",0.213287175157144,0.60023659050397,7.15638039732531,7.45011405562092,0.355338509067006,0.96057326691878
"78","107","5","5-6","4-3","""short""","""4-5""","""4-3""","""left""","""simple""","""bugorn""",0.59194499618029,0.598802900536869,7.51389426853832,7.46635694988485,0.988547309389399,1.00636686927407
"79","107","6","3-3","2-2","""short""","""2-3""","""2-2""","""left""","""simple""","""lopus""",0.400489205783323,0.437312451087946,7.22323860108545,7.35231805220081,0.915796485526506,0.982443706841991
"80","107","7","5-1","3-5","""short""","""3-5""","""5-1""","""right""","""complex""","""ralex""",0.545940690325717,0.643812070282658,7.38057144653556,7.55152734409631,0.847981446023571,0.977361414483336
"81","108","0","4-7","3-6","""long""","""3-4""","""4-7""","""right""","""complex""","""kibagronan""",0.52237068011997,0.596326967150497,7.37717323948312,7.40403330391097,0.875980307608892,0.996372238842624
"82","108","1","5-2","4-8","""long""","""4-5""","""5-2""","""left""","""complex""","""pakuwugnum""",0.59644761338879,0.732388591800357,7.48492849833601,7.40911860957558,0.814386816051576,1.01023197127152
"83","108","2","2-5","1-1","""short""","""1-2""","""1-1""","""left""","""simple""","""ratum""",0.198905525846702,0.365537163309983,7.04719236357878,7.28993416391881,0.544145837445333,0.966701784284765
"84","108","3","5-4","3-2","""long""","""3-5""","""5-4""","""right""","""complex""","""tiburalex""",0.500260812458955,0.614266488413547,7.34357497749828,7.52245949482209,0.814403555940302,0.976219942766466
"85","108","4","3-6","1-5","""short""","""1-3""","""1-5""","""right""","""simple""","""torun""",0.171708853238265,0.52237068011997,7.13330511343712,7.37717323948312,0.328710740807332,0.966942876610135
"86","108","5","4-8","4-3","""short""","""4-4""","""4-3""","""left""","""simple""","""vatrus""",0.59194499618029,0.59644761338879,7.51389426853832,7.48492849833601,0.992450942702381,1.00386987934604
"87","108","6","4-3","2-7","""long""","""2-4""","""2-7""","""left""","""simple""","""tupabugorn""",0.498480635229298,0.59194499618029,7.25324083665048,7.51389426853832,0.842106341714011,0.965310473827236
"88","108","7","2-1","2-4","""short""","""2-2""","""2-4""","""right""","""simple""","""lopus""",0.409232560903149,0.396717626087868,7.29336768842468,7.25000948926994,1.0315462031236,1.00598043343514
"89","109","0","5-8","2-6","""long""","""2-5""","""2-6""","""left""","""simple""","""tiburalex""",0.362726450020568,0.627812012463534,7.30024971724876,7.5809576218774,0.577762837950853,0.962971972852274
"90","109","1","1-1","1-2","""long""","""1-1""","""1-2""","""left""","""simple""","""gaburatum""",0.067770971422087,0.198905525846702,7.12566153316537,7.04719236357878,0.340719399994541,1.01113481306288
"91","109","2","2-3","2-7","""short""","""2-2""","""2-7""","""right""","""simple""","""lopus""",0.498480635229298,0.393164349376114,7.25324083665048,7.2537688186413,1.2678683507808,0.999927212735335
"92","109","3","3-4","1-8","""short""","""1-3""","""3-4""","""right""","""complex""","""vatrus""",0.213287175157144,0.454706120023767,7.15638039732531,7.34365297144576,0.469065987381027,0.974498716803664
"93","109","4","2-5","1-1","""short""","""1-2""","""2-5""","""left""","""complex""","""torun""",0.198905525846702,0.365537163309983,7.04719236357878,7.28993416391881,0.544145837445333,0.966701784284765
"94","109","5","4-2","4-3","""long""","""4-4""","""4-3""","""left""","""simple""","""tupabugorn""",0.59194499618029,0.601591200602591,7.51389426853832,7.38357413673939,0.983965516096913,1.01765000653958
"95","109","6","3-6","3-5","""long""","""3-3""","""3-5""","""left""","""simple""","""pakuwugnum""",0.545940690325717,0.52237068011997,7.38057144653556,7.37717323948312,1.04512123498266,1.00046063809838
"96","109","7","5-7","5-4","""short""","""5-5""","""5-7""","""right""","""complex""","""gronan""",0.614266488413547,0.657452317290553,7.52245949482209,7.53194766740618,0.934313367310073,0.998740276353068
"97","11","0","3-2","3-7","""long""","""3-3""","""3-2""","""right""","""complex""","""pakuwugnum""",0.491521184697655,0.500260812458955,7.4576421040624,7.34357497749828,0.982529857339131,1.01553291508749
"98","11","1","5-5","1-1","""long""","""1-5""","""5-5""","""left""","""complex""","""fepolopus""",0.198905525846702,0.654049197860962,7.04719236357878,7.41937065134264,0.304114012366674,0.949836946386213
"99","11","2","2-3","2-4","""long""","""2-2""","""2-4""","""left""","""simple""","""binivatrus""",0.409232560903149,0.393164349376114,7.29336768842468,7.2537688186413,1.04086894336308,1.00545907524398
"100","11","3","1-4","1-6","""short""","""1-1""","""1-4""","""right""","""complex""","""gronan""",0.096151633986928,0.205391265597148,7.07781498740677,7.106017880143,0.468138865142974,0.996031125559782
"101","11","4","5-6","2-5","""long""","""2-5""","""2-5""","""left""","""simple""","""tupabugorn""",0.365537163309983,0.598802900536869,7.28993416391881,7.46635694988485,0.610446547573923,0.976370968177625
"102","11","5","3-8","1-2","""short""","""1-3""","""3-8""","""right""","""complex""","""torun""",0.067770971422087,0.592708884510742,7.12566153316537,7.37820860586072,0.114341075683435,0.965771220876739
"103","11","6","5-7","4-3","""short""","""4-5""","""4-3""","""right""","""simple""","""ralex""",0.59194499618029,0.657452317290553,7.51389426853832,7.53194766740618,0.900361867488387,0.997603090241056
"104","11","7","4-1","2-8","""short""","""2-4""","""4-1""","""left""","""complex""","""ratum""",0.388259920156472,0.559609180035651,7.14928546016887,7.47238209549203,0.693805487843743,0.956761226715363
"105","110","0","4-8","1-7","""long""","""1-4""","""1-7""","""right""","""simple""","""kibagronan""",0.226620320855615,0.59644761338879,7.21094692940482,7.48492849833601,0.379950084078707,0.963395566304728
"106","110","1","3-2","3-8","""long""","""3-3""","""3-8""","""left""","""simple""","""binivatrus""",0.592708884510742,0.500260812458955,7.37820860586072,7.34357497749828,1.18479974795022,1.00471618094301
"107","110","2","5-4","4-1","""short""","""4-5""","""4-1""","""right""","""simple""","""bugorn""",0.559609180035651,0.614266488413547,7.47238209549203,7.52245949482209,0.911020201477931,0.993342948624113
"108","110","3","5-7","5-4","""short""","""5-5""","""5-7""","""left""","""complex""","""lopus""",0.614266488413547,0.657452317290553,7.52245949482209,7.53194766740618,0.934313367310073,0.998740276353068
"109","110","4","2-3","2-2","""short""","""2-2""","""2-2""","""right""","""simple""","""wugnum""",0.400489205783323,0.393164349376114,7.22323860108545,7.2537688186413,1.01863052033795,0.99579112343953
"110","110","5","2-1","1-5","""long""","""1-2""","""1-5""","""left""","""simple""","""mipatorun""",0.171708853238265,0.396717626087868,7.13330511343712,7.25000948926994,0.432823857441196,0.983902865781687
"111","110","6","3-6","2-3","""short""","""2-3""","""2-3""","""left""","""simple""","""ralex""",0.393164349376114,0.52237068011997,7.2537688186413,7.37717323948312,0.752653937785747,0.98327212648588
"112","110","7","5-5","2-6","""long""","""2-5""","""2-6""","""right""","""simple""","""gaburatum""",0.362726450020568,0.654049197860962,7.30024971724876,7.41937065134264,0.55458588009411,0.983944603970915
"113","111","0","5-5","2-1","""long""","""2-5""","""5-5""","""left""","""complex""","""gaburatum""",0.396717626087868,0.654049197860962,7.25000948926994,7.41937065134264,0.606556245899108,0.977173109414334
"114","111","1","5-6","3-3","""long""","""3-5""","""5-6""","""left""","""complex""","""tiburalex""",0.437312451087946,0.598802900536869,7.35231805220081,7.46635694988485,0.730311177009772,0.984726299793931
"115","111","2","2-3","2-7","""short""","""2-2""","""2-7""","""left""","""simple""","""torun""",0.498480635229298,0.393164349376114,7.25324083665048,7.2537688186413,1.2678683507808,0.999927212735335
"116","111","3","5-8","1-4","""short""","""1-5""","""1-4""","""right""","""simple""","""gronan""",0.205391265597148,0.627812012463534,7.106017880143,7.5809576218774,0.327154086764273,0.937350956775724
"117","111","4","3-1","3-2","""long""","""3-3""","""3-1""","""right""","""complex""","""tupabugorn""",0.500260812458955,0.589474738918958,7.34357497749828,7.26311607655564,0.848655216975688,1.01107773854838
"118","111","5","4-2","3-5","""short""","""3-4""","""3-5""","""left""","""simple""","""wugnum""",0.545940690325717,0.601591200602591,7.38057144653556,7.38357413673939,0.907494474285643,0.999593328359921
"119","111","6","3-4","1-6","""short""","""1-3""","""3-4""","""left""","""complex""","""vatrus""",0.096151633986928,0.454706120023767,7.07781498740677,7.34365297144576,0.211458851668639,0.963800306867353
"120","111","7","4-7","4-8","""long""","""4-4""","""4-8""","""right""","""simple""","""fepolopus""",0.59644761338879,0.596326967150497,7.48492849833601,7.40403330391097,1.00020231558346,1.01092582800543
"121","112","0","5-5","5-4","""long""","""5-5""","""5-4""","""right""","""simple""","""tiburalex""",0.614266488413547,0.654049197860962,7.52245949482209,7.41937065134264,0.939174744686604,1.01389455363856
"122","112","1","4-1","3-2","""short""","""3-4""","""4-1""","""left""","""complex""","""torun""",0.500260812458955,0.559609180035651,7.34357497749828,7.47238209549203,0.893946758391428,0.982762241498403
"123","112","2","5-2","3-6","""long""","""3-5""","""5-2""","""right""","""complex""","""fepolopus""",0.52237068011997,0.732388591800357,7.37717323948312,7.40911860957558,0.713242513562205,0.995688371076801
"124","112","3","1-4","1-8","""short""","""1-1""","""1-4""","""left""","""complex""","""bugorn""",0.213287175157144,0.205391265597148,7.15638039732531,7.106017880143,1.03844325870937,1.00708730515906
"125","112","4","4-8","2-1","""short""","""2-4""","""2-1""","""left""","""simple""","""gronan""",0.396717626087868,0.59644761338879,7.25000948926994,7.48492849833601,0.665134065729374,0.968614395031523
"126","112","5","5-6","1-7","""long""","""1-5""","""1-7""","""left""","""simple""","""binivatrus""",0.226620320855615,0.598802900536869,7.21094692940482,7.46635694988485,0.37845561645148,0.965791881878354
"127","112","6","2-7","1-3","""short""","""1-2""","""1-3""","""right""","""simple""","""wugnum""",0.240463209407226,0.498480635229298,7.12022004272548,7.25324083665048,0.482392278481619,0.981660502260886
"128","112","7","4-3","4-5","""long""","""4-4""","""4-5""","""right""","""simple""","""gaburatum""",0.60023659050397,0.59194499618029,7.45011405562092,7.51389426853832,1.01400737294374,0.991511696779597
"129","113","0","5-4","3-3","""short""","""3-5""","""3-3""","""right""","""simple""","""vatrus""",0.437312451087946,0.614266488413547,7.35231805220081,7.52245949482209,0.711926271962815,0.977382205548811
"130","113","1","1-2","1-7","""long""","""1-1""","""1-7""","""right""","""simple""","""fepolopus""",0.226620320855615,0.067770971422087,7.21094692940482,7.12566153316537,3.34391430579019,1.01196876891254
"131","113","2","4-3","4-2","""short""","""4-4""","""4-2""","""left""","""simple""","""torun""",0.601591200602591,0.59194499618029,7.38357413673939,7.51389426853832,1.01629577829789,0.98265611317628
"132","113","3","4-5","3-6","""long""","""3-4""","""4-5""","""left""","""complex""","""kibagronan""",0.52237068011997,0.60023659050397,7.37717323948312,7.45011405562092,0.870274635675539,0.990209436312889
"133","113","4","3-7","1-8","""long""","""1-3""","""3-7""","""left""","""complex""","""tiburalex""",0.213287175157144,0.491521184697655,7.15638039732531,7.4576421040624,0.433932822831108,0.959603625042159
"134","113","5","4-1","1-4","""short""","""1-4""","""4-1""","""left""","""complex""","""ratum""",0.205391265597148,0.559609180035651,7.106017880143,7.47238209549203,0.367026262121117,0.950970893797033
"135","113","6","2-6","2-1","""long""","""2-2""","""2-1""","""right""","""simple""","""tupabugorn""",0.396717626087868,0.362726450020568,7.25000948926994,7.30024971724876,1.09371022175354,0.993118012407149
"136","113","7","3-8","2-5","""short""","""2-3""","""2-5""","""right""","""simple""","""wugnum""",0.365537163309983,0.592708884510742,7.28993416391881,7.37820860586072,0.616722935765877,0.988035789355184
"137","114","0","3-2","3-1","""short""","""3-3""","""3-1""","""right""","""simple""","""bugorn""",0.589474738918958,0.500260812458955,7.26311607655564,7.34357497749828,1.17833482902945,0.989043633218265
"138","114","1","2-4","1-7","""long""","""1-2""","""2-4""","""left""","""complex""","""fepolopus""",0.226620320855615,0.409232560903149,7.21094692940482,7.29336768842468,0.553769036255275,0.988699217900303
"139","114","2","4-8","4-6","""long""","""4-4""","""4-8""","""left""","""complex""","""mipatorun""",0.614648336563144,0.59644761338879,7.4808403912451,7.48492849833601,1.03051520831971,0.999453821490503
"140","114","3","2-7","2-5","""long""","""2-2""","""2-7""","""right""","""complex""","""binivatrus""",0.365537163309983,0.498480635229298,7.28993416391881,7.25324083665048,0.733302634999729,1.00505888720569
"141","114","4","4-1","1-4","""short""","""1-4""","""4-1""","""left""","""complex""","""wugnum""",0.205391265597148,0.559609180035651,7.106017880143,7.47238209549203,0.367026262121117,0.950970893797033
"142","114","5","5-3","4-8","""short""","""4-5""","""5-3""","""right""","""complex""","""gronan""",0.59644761338879,0.650860276977924,7.48492849833601,7.49631198228932,0.916398856231044,0.998481455416983
"143","114","6","4-5","3-3","""short""","""3-4""","""4-5""","""left""","""complex""","""ratum""",0.437312451087946,0.60023659050397,7.35231805220081,7.45011405562092,0.728566798503187,0.98687322063931
"144","114","7","3-6","1-2","""long""","""1-3""","""3-6""","""left""","""complex""","""tiburalex""",0.067770971422087,0.52237068011997,7.12566153316537,7.37717323948312,0.129737318730298,0.965906764264171
"145","115","0","4-6","4-1","""long""","""4-4""","""4-1""","""right""","""simple""","""tiburalex""",0.559609180035651,0.614648336563144,7.47238209549203,7.4808403912451,0.910454233334057,0.998869338829502
"146","115","1","5-7","3-3","""long""","""3-5""","""3-3""","""right""","""simple""","""tupabugorn""",0.437312451087946,0.657452317290553,7.35231805220081,7.53194766740618,0.665162232434084,0.97615097407239
"147","115","2","4-1","2-2","""long""","""2-4""","""4-1""","""left""","""complex""","""fepolopus""",0.400489205783323,0.559609180035651,7.22323860108545,7.47238209549203,0.715658749125254,0.966658089586066
"148","115","3","3-4","2-5","""short""","""2-3""","""2-5""","""right""","""simple""","""wugnum""",0.365537163309983,0.454706120023767,7.28993416391881,7.34365297144576,0.803897610374975,0.992685001900849
"149","115","4","5-8","5-4","""short""","""5-5""","""5-4""","""right""","""simple""","""gronan""",0.614266488413547,0.627812012463534,7.52245949482209,7.5809576218774,0.978424235629334,0.992283543851176
"150","115","5","5-2","2-7","""long""","""2-5""","""2-7""","""left""","""simple""","""binivatrus""",0.498480635229298,0.732388591800357,7.25324083665048,7.40911860957558,0.680623156627731,0.978961360839379
"151","115","6","4-3","3-8","""short""","""3-4""","""3-8""","""right""","""simple""","""torun""",0.592708884510742,0.59194499618029,7.37820860586072,7.51389426853832,1.00129047180968,0.981942031943977
"152","115","7","5-5","1-6","""short""","""1-5""","""1-6""","""right""","""simple""","""ratum""",0.096151633986928,0.654049197860962,7.07781498740677,7.41937065134264,0.147009788103689,0.953964334714285
"153","116","0","4-6","2-7","""short""","""2-4""","""4-6""","""right""","""complex""","""torun""",0.498480635229298,0.614648336563144,7.25324083665048,7.4808403912451,0.81100135732343,0.96957567028686
"154","116","1","2-4","1-2","""long""","""1-2""","""2-4""","""left""","""complex""","""tupabugorn""",0.067770971422087,0.409232560903149,7.12566153316537,7.29336768842468,0.165605032191283,0.977005662894869
"155","116","2","4-2","4-6","""short""","""4-4""","""4-2""","""right""","""complex""","""vatrus""",0.614648336563144,0.601591200602591,7.4808403912451,7.38357413673939,1.02170433335374,1.01317332943428
"156","116","3","5-5","4-8","""short""","""4-5""","""4-8""","""right""","""simple""","""ratum""",0.59644761338879,0.654049197860962,7.48492849833601,7.41937065134264,0.911930807864981,1.00883603880627
"157","116","4","5-3","1-1","""long""","""1-5""","""5-3""","""right""","""complex""","""pakuwugnum""",0.198905525846702,0.650860276977924,7.04719236357878,7.49631198228932,0.305604033434427,0.940087923265251
"158","116","5","4-8","3-4","""long""","""3-4""","""4-8""","""left""","""complex""","""tiburalex""",0.454706120023767,0.59644761338879,7.34365297144576,7.48492849833601,0.7623571790996,0.98112533380624
"159","116","6","5-1","3-3","""long""","""3-5""","""3-3""","""right""","""simple""","""fepolopus""",0.437312451087946,0.643812070282658,7.35231805220081,7.55152734409631,0.679254818717439,0.973619999926076
"160","116","7","5-7","5-5","""short""","""5-5""","""5-7""","""left""","""complex""","""gronan""",0.654049197860962,0.657452317290553,7.41937065134264,7.53194766740618,0.994823777572774,0.98505339906294
"161","117","0","5-5","1-8","""short""","""1-5""","""1-8""","""right""","""simple""","""ralex""",0.213287175157144,0.654049197860962,7.15638039732531,7.41937065134264,0.326102647713184,0.964553563047866
"162","117","1","3-8","1-4","""long""","""1-3""","""3-8""","""left""","""complex""","""fepolopus""",0.205391265597148,0.592708884510742,7.106017880143,7.37820860586072,0.346529756790621,0.963108833016525
"163","117","2","3-7","3-5","""short""","""3-3""","""3-7""","""left""","""complex""","""gronan""",0.545940690325717,0.491521184697655,7.38057144653556,7.4576421040624,1.11071650077816,0.98966554623413
"164","117","3","5-4","2-7","""long""","""2-5""","""2-7""","""left""","""simple""","""binivatrus""",0.498480635229298,0.614266488413547,7.25324083665048,7.52245949482209,0.811505502305218,0.964211351572325
"165","117","4","5-2","3-6","""long""","""3-5""","""5-2""","""right""","""complex""","""pakuwugnum""",0.52237068011997,0.732388591800357,7.37717323948312,7.40911860957558,0.713242513562205,0.995688371076801
"166","117","5","4-1","4-3","""short""","""4-4""","""4-1""","""left""","""complex""","""ratum""",0.59194499618029,0.559609180035651,7.51389426853832,7.47238209549203,1.05778285506785,1.00555541359044
"167","117","6","1-3","1-2","""short""","""1-1""","""1-3""","""left""","""complex""","""torun""",0.067770971422087,0.240463209407226,7.12566153316537,7.12022004272548,0.281835094812015,1.00076423065681
"168","117","7","2-6","2-1","""long""","""2-2""","""2-6""","""right""","""complex""","""tupabugorn""",0.396717626087868,0.362726450020568,7.25000948926994,7.30024971724876,1.09371022175354,0.993118012407149
"169","118","0","2-1","2-8","""short""","""2-2""","""2-1""","""right""","""complex""","""bugorn""",0.388259920156472,0.396717626087868,7.14928546016887,7.25000948926994,0.978680791133987,0.986107048652813
"170","118","1","4-2","4-4","""long""","""4-4""","""4-4""","""left""","""simple""","""gaburatum""",0.599862745098039,0.601591200602591,7.44415965744716,7.38357413673939,0.997126860394865,1.00820544624944
"171","118","2","5-6","2-2","""short""","""2-5""","""2-2""","""left""","""simple""","""ralex""",0.400489205783323,0.598802900536869,7.22323860108545,7.46635694988485,0.668816409246275,0.967438156194347
"172","118","3","2-7","1-3","""long""","""1-2""","""1-3""","""left""","""simple""","""binivatrus""",0.240463209407226,0.498480635229298,7.12022004272548,7.25324083665048,0.482392278481619,0.981660502260886
"173","118","4","5-5","3-1","""long""","""3-5""","""5-5""","""left""","""complex""","""fepolopus""",0.589474738918958,0.654049197860962,7.26311607655564,7.41937065134264,0.901269722288183,0.978939645674836
"174","118","5","5-4","1-6","""short""","""1-5""","""1-6""","""left""","""simple""","""torun""",0.096151633986928,0.614266488413547,7.07781498740677,7.52245949482209,0.156530814883385,0.940891073229257
"175","118","6","3-8","3-5","""short""","""3-3""","""3-5""","""right""","""simple""","""gronan""",0.545940690325717,0.592708884510742,7.38057144653556,7.37820860586072,0.921094157001493,1.00032024584843
"176","118","7","4-3","2-7","""long""","""2-4""","""4-3""","""right""","""complex""","""pakuwugnum""",0.498480635229298,0.59194499618029,7.25324083665048,7.51389426853832,0.842106341714011,0.965310473827236
"177","119","0","5-8","3-4","""long""","""3-5""","""5-8""","""right""","""complex""","""tupabugorn""",0.454706120023767,0.627812012463534,7.34365297144576,7.5809576218774,0.724271136895741,0.968697272525727
"178","119","1","4-5","3-3","""short""","""3-4""","""3-3""","""right""","""simple""","""ratum""",0.437312451087946,0.60023659050397,7.35231805220081,7.45011405562092,0.728566798503187,0.98687322063931
"179","119","2","3-2","3-8","""short""","""3-3""","""3-2""","""right""","""complex""","""torun""",0.592708884510742,0.500260812458955,7.37820860586072,7.34357497749828,1.18479974795022,1.00471618094301
"180","119","3","5-4","1-6","""long""","""1-5""","""1-6""","""right""","""simple""","""tiburalex""",0.096151633986928,0.614266488413547,7.07781498740677,7.52245949482209,0.156530814883385,0.940891073229257
"181","119","4","3-1","2-2","""short""","""2-3""","""3-1""","""right""","""complex""","""lopus""",0.400489205783323,0.589474738918958,7.22323860108545,7.26311607655564,0.679400115631389,0.994509591331067
"182","119","5","4-7","2-5","""short""","""2-4""","""2-5""","""right""","""simple""","""gronan""",0.365537163309983,0.596326967150497,7.28993416391881,7.40403330391097,0.612981105075081,0.9845895966011
"183","119","6","4-3","1-1","""long""","""1-4""","""4-3""","""left""","""complex""","""binivatrus""",0.198905525846702,0.59194499618029,7.04719236357878,7.51389426853832,0.336020284199042,0.937888145842871
"184","119","7","1-6","1-7","""long""","""1-1""","""1-6""","""left""","""complex""","""pakuwugnum""",0.226620320855615,0.096151633986928,7.21094692940482,7.07781498740677,2.35690556113092,1.01880975163026
"185","12","0","4-6","2-7","""long""","""2-4""","""4-6""","""left""","""complex""","""pakuwugnum""",0.498480635229298,0.614648336563144,7.25324083665048,7.4808403912451,0.81100135732343,0.96957567028686
"186","12","1","2-7","1-3","""short""","""1-2""","""1-3""","""right""","""simple""","""bugorn""",0.240463209407226,0.498480635229298,7.12022004272548,7.25324083665048,0.482392278481619,0.981660502260886
"187","12","2","3-4","1-6","""short""","""1-3""","""3-4""","""right""","""complex""","""vatrus""",0.096151633986928,0.454706120023767,7.07781498740677,7.34365297144576,0.211458851668639,0.963800306867353
"188","12","3","3-3","3-5","""long""","""3-3""","""3-5""","""right""","""simple""","""kibagronan""",0.545940690325717,0.437312451087946,7.38057144653556,7.35231805220081,1.2483996030013,1.00384278728615
"189","12","4","2-5","2-4","""short""","""2-2""","""2-5""","""right""","""complex""","""torun""",0.409232560903149,0.365537163309983,7.29336768842468,7.28993416391881,1.11953749708374,1.00047099526946
"190","12","5","5-1","5-8","""long""","""5-5""","""5-1""","""right""","""complex""","""tiburalex""",0.627812012463534,0.643812070282658,7.5809576218774,7.55152734409631,0.975147937484149,1.00389726163199
"191","12","6","1-2","1-1","""long""","""1-1""","""1-1""","""left""","""simple""","""gaburatum""",0.198905525846702,0.067770971422087,7.04719236357878,7.12566153316537,2.93496642696607,0.988987805662483
"192","12","7","5-8","1-2","""short""","""1-5""","""1-2""","""left""","""simple""","""lopus""",0.067770971422087,0.627812012463534,7.12566153316537,7.5809576218774,0.107947873052243,0.939942140370483
"193","120","0","5-6","4-5","""long""","""4-5""","""5-6""","""left""","""complex""","""tiburalex""",0.60023659050397,0.598802900536869,7.45011405562092,7.46635694988485,1.00239426022455,0.997824522136705
"194","120","1","1-3","1-2","""long""","""1-1""","""1-3""","""left""","""complex""","""binivatrus""",0.067770971422087,0.240463209407226,7.12566153316537,7.12022004272548,0.281835094812015,1.00076423065681
"195","120","2","2-2","2-6","""short""","""2-2""","""2-2""","""left""","""complex""","""ratum""",0.362726450020568,0.400489205783323,7.30024971724876,7.22323860108545,0.905708430545852,1.01066157722545
"196","120","3","2-8","1-1","""long""","""1-2""","""1-1""","""right""","""simple""","""fepolopus""",0.198905525846702,0.388259920156472,7.04719236357878,7.14928546016887,0.512299919514076,0.985719818133031
"197","120","4","5-7","5-4","""short""","""5-5""","""5-7""","""right""","""complex""","""bugorn""",0.614266488413547,0.657452317290553,7.52245949482209,7.53194766740618,0.934313367310073,0.998740276353068
"198","120","5","5-4","3-7","""short""","""3-5""","""3-7""","""right""","""simple""","""wugnum""",0.491521184697655,0.614266488413547,7.4576421040624,7.52245949482209,0.800175809634506,0.991383484244175
"199","120","6","4-1","1-8","""long""","""1-4""","""1-8""","""left""","""simple""","""mipatorun""",0.213287175157144,0.559609180035651,7.15638039732531,7.47238209549203,0.381135947668972,0.957710714718756
"200","120","7","3-5","1-3","""short""","""1-3""","""1-3""","""right""","""simple""","""gronan""",0.240463209407226,0.545940690325717,7.12022004272548,7.38057144653556,0.440456653384385,0.964724763428408
"201","121","0","3-4","1-6","""short""","""1-3""","""3-4""","""left""","""complex""","""ratum""",0.096151633986928,0.454706120023767,7.07781498740677,7.34365297144576,0.211458851668639,0.963800306867353
"202","121","1","1-5","1-2","""long""","""1-1""","""1-5""","""left""","""complex""","""pakuwugnum""",0.067770971422087,0.171708853238265,7.12566153316537,7.13330511343712,0.394685365046654,0.998928465816308
"203","121","2","5-2","3-5","""short""","""3-5""","""3-5""","""right""","""simple""","""bugorn""",0.545940690325717,0.732388591800357,7.38057144653556,7.40911860957558,0.74542489661627,0.996147023074631
"204","121","3","3-3","3-8","""long""","""3-3""","""3-3""","""left""","""complex""","""fepolopus""",0.592708884510742,0.437312451087946,7.37820860586072,7.35231805220081,1.35534417791261,1.0035214137196
"205","121","4","4-1","2-4","""short""","""2-4""","""2-4""","""left""","""simple""","""gronan""",0.409232560903149,0.559609180035651,7.29336768842468,7.47238209549203,0.731282787171358,0.976043194154198
"206","121","5","5-8","4-1","""long""","""4-5""","""4-1""","""left""","""simple""","""tiburalex""",0.559609180035651,0.627812012463534,7.47238209549203,7.5809576218774,0.891364244273927,0.985677861320311
"207","121","6","4-6","4-7","""long""","""4-4""","""4-6""","""right""","""complex""","""binivatrus""",0.596326967150497,0.614648336563144,7.40403330391097,7.4808403912451,0.970192110963657,0.989732826351433
"208","121","7","4-7","3-3","""short""","""3-4""","""4-7""","""right""","""complex""","""torun""",0.437312451087946,0.596326967150497,7.35231805220081,7.40403330391097,0.733343409199839,0.993015259442061
"209","122","0","5-3","4-8","""short""","""4-5""","""5-3""","""left""","""complex""","""vatrus""",0.59644761338879,0.650860276977924,7.48492849833601,7.49631198228932,0.916398856231044,0.998481455416983
"210","122","1","3-8","2-7","""short""","""2-3""","""3-8""","""left""","""complex""","""ralex""",0.498480635229298,0.592708884510742,7.25324083665048,7.37820860586072,0.841021027786304,0.983062586613372
"211","122","2","2-2","1-1","""short""","""1-2""","""2-2""","""left""","""complex""","""ratum""",0.198905525846702,0.400489205783323,7.04719236357878,7.22323860108545,0.496656396662826,0.975627796999505
"212","122","3","4-6","2-5","""short""","""2-4""","""4-6""","""right""","""complex""","""gronan""",0.365537163309983,0.614648336563144,7.28993416391881,7.4808403912451,0.594709432313628,0.974480644240223
"213","122","4","1-1","1-2","""long""","""1-1""","""1-1""","""right""","""complex""","""pakuwugnum""",0.067770971422087,0.198905525846702,7.12566153316537,7.04719236357878,0.340719399994541,1.01113481306288
"214","122","5","5-7","2-4","""long""","""2-5""","""5-7""","""left""","""complex""","""fepolopus""",0.409232560903149,0.657452317290553,7.29336768842468,7.53194766740618,0.622452077725804,0.968324264915709
"215","122","6","3-5","1-6","""long""","""1-3""","""3-5""","""right""","""complex""","""tupabugorn""",0.096151633986928,0.545940690325717,7.07781498740677,7.38057144653556,0.176121025032156,0.958979265857401
"216","122","7","4-4","1-3","""long""","""1-4""","""4-4""","""left""","""complex""","""mipatorun""",0.240463209407226,0.599862745098039,7.12022004272548,7.44415965744716,0.400863716528896,0.956484058694575
"217","123","0","4-3","2-7","""long""","""2-4""","""2-7""","""left""","""simple""","""tupabugorn""",0.498480635229298,0.59194499618029,7.25324083665048,7.51389426853832,0.842106341714011,0.965310473827236
"218","123","1","1-5","1-6","""short""","""1-1""","""1-5""","""right""","""complex""","""lopus""",0.096151633986928,0.171708853238265,7.07781498740677,7.13330511343712,0.559968995037821,0.992220979595304
"219","123","2","5-7","3-2","""short""","""3-5""","""5-7""","""left""","""complex""","""gronan""",0.500260812458955,0.657452317290553,7.34357497749828,7.53194766740618,0.760908128699881,0.974990175419956
"220","123","3","5-1","1-3","""short""","""1-5""","""5-1""","""left""","""complex""","""wugnum""",0.240463209407226,0.643812070282658,7.12022004272548,7.55152734409631,0.373499069847593,0.942884759371491
"221","123","4","3-4","3-5","""long""","""3-3""","""3-5""","""right""","""simple""","""binivatrus""",0.545940690325717,0.454706120023767,7.38057144653556,7.34365297144576,1.20064513382222,1.00502726303018
"222","123","5","2-2","1-8","""long""","""1-2""","""2-2""","""left""","""complex""","""tiburalex""",0.213287175157144,0.400489205783323,7.15638039732531,7.22323860108545,0.532566601239532,0.99074401283794
"223","123","6","4-6","1-1","""short""","""1-4""","""1-1""","""right""","""simple""","""ratum""",0.198905525846702,0.614648336563144,7.04719236357878,7.4808403912451,0.323608662082937,0.942032177537991
"224","123","7","3-8","2-4","""long""","""2-3""","""2-4""","""right""","""simple""","""mipatorun""",0.409232560903149,0.592708884510742,7.29336768842468,7.37820860586072,0.690444451901467,0.988501149538026
"225","124","0","2-3","1-7","""short""","""1-2""","""2-3""","""right""","""complex""","""ratum""",0.226620320855615,0.393164349376114,7.21094692940482,7.2537688186413,0.57640099163422,0.994096601324482
"226","124","1","5-7","5-3","""long""","""5-5""","""5-3""","""left""","""simple""","""fepolopus""",0.650860276977924,0.657452317290553,7.49631198228932,7.53194766740618,0.989973356030144,0.99526872906047
"227","124","2","2-4","2-1","""short""","""2-2""","""2-1""","""right""","""simple""","""vatrus""",0.396717626087868,0.409232560903149,7.25000948926994,7.29336768842468,0.969418526258855,0.994055119526806
"228","124","3","4-2","3-6","""short""","""3-4""","""4-2""","""right""","""complex""","""gronan""",0.52237068011997,0.601591200602591,7.37717323948312,7.38357413673939,0.868315027873964,0.999133089593505
"229","124","4","4-5","4-4","""long""","""4-4""","""4-4""","""left""","""simple""","""pakuwugnum""",0.599862745098039,0.60023659050397,7.44415965744716,7.45011405562092,0.999377169916254,0.99920076415887
"230","124","5","3-8","1-5","""long""","""1-3""","""3-8""","""left""","""complex""","""tiburalex""",0.171708853238265,0.592708884510742,7.13330511343712,7.37820860586072,0.289701837994219,0.966807187827535
"231","124","6","5-1","4-2","""long""","""4-5""","""5-1""","""left""","""complex""","""mipatorun""",0.601591200602591,0.643812070282658,7.38357413673939,7.55152734409631,0.934420506186642,0.977759041356286
"232","124","7","3-6","2-8","""short""","""2-3""","""3-6""","""left""","""complex""","""bugorn""",0.388259920156472,0.52237068011997,7.14928546016887,7.37717323948312,0.743265146633617,0.969109064960739
"233","125","0","4-4","4-1","""long""","""4-4""","""4-4""","""right""","""complex""","""tiburalex""",0.559609180035651,0.599862745098039,7.47238209549203,7.44415965744716,0.93289537416462,1.00379121880018
"234","125","1","2-3","1-8","""long""","""1-2""","""2-3""","""right""","""complex""","""gaburatum""",0.213287175157144,0.393164349376114,7.15638039732531,7.2537688186413,0.542488594135239,0.986574093584881
"235","125","2","5-8","1-4","""short""","""1-5""","""1-4""","""left""","""simple""","""wugnum""",0.205391265597148,0.627812012463534,7.106017880143,7.5809576218774,0.327154086764273,0.937350956775724
"236","125","3","5-2","5-6","""short""","""5-5""","""5-6""","""left""","""simple""","""lopus""",0.598802900536869,0.732388591800357,7.46635694988485,7.40911860957558,0.817602714243394,1.0077253912814
"237","125","4","1-1","1-5","""short""","""1-1""","""1-5""","""left""","""simple""","""gronan""",0.171708853238265,0.198905525846702,7.13330511343712,7.04719236357878,0.863268390897306,1.01221944079509
"238","125","5","3-7","3-2","""long""","""3-3""","""3-2""","""right""","""simple""","""tupabugorn""",0.500260812458955,0.491521184697655,7.34357497749828,7.4576421040624,1.01778077534273,0.984704666036201
"239","125","6","5-6","3-3","""long""","""3-5""","""3-3""","""left""","""simple""","""mipatorun""",0.437312451087946,0.598802900536869,7.35231805220081,7.46635694988485,0.730311177009772,0.984726299793931
"240","125","7","3-5","2-7","""short""","""2-3""","""3-5""","""right""","""complex""","""vatrus""",0.498480635229298,0.545940690325717,7.25324083665048,7.38057144653556,0.913067379044226,0.982747865689336
"241","126","0","5-8","5-2","""short""","""5-5""","""5-2""","""right""","""simple""","""gronan""",0.732388591800357,0.627812012463534,7.40911860957558,7.5809576218774,1.16657307802453,0.977332809273868
"242","126","1","2-2","1-4","""long""","""1-2""","""2-2""","""left""","""complex""","""pakuwugnum""",0.205391265597148,0.400489205783323,7.106017880143,7.22323860108545,0.512850939878442,0.983771722434195
"243","126","2","4-7","4-6","""long""","""4-4""","""4-6""","""right""","""simple""","""fepolopus""",0.614648336563144,0.596326967150497,7.4808403912451,7.40403330391097,1.03072369760535,1.01037368204348
"244","126","3","2-1","2-8","""long""","""2-2""","""2-1""","""left""","""complex""","""mipatorun""",0.388259920156472,0.396717626087868,7.14928546016887,7.25000948926994,0.978680791133987,0.986107048652813
"245","126","4","3-6","3-7","""short""","""3-3""","""3-6""","""left""","""complex""","""ratum""",0.491521184697655,0.52237068011997,7.4576421040624,7.37717323948312,0.940943286833729,1.0109078182072
"246","126","5","4-4","1-3","""short""","""1-4""","""1-3""","""left""","""simple""","""bugorn""",0.240463209407226,0.599862745098039,7.12022004272548,7.44415965744716,0.400863716528896,0.956484058694575
"247","126","6","4-3","3-5","""long""","""3-4""","""3-5""","""right""","""simple""","""binivatrus""",0.545940690325717,0.59194499618029,7.38057144653556,7.51389426853832,0.922282803045165,0.982256494803101
"248","126","7","5-5","2-1","""short""","""2-5""","""5-5""","""left""","""complex""","""ralex""",0.396717626087868,0.654049197860962,7.25000948926994,7.41937065134264,0.606556245899108,0.977173109414334
"249","127","0","5-3","5-8","""short""","""5-5""","""5-3""","""right""","""complex""","""torun""",0.627812012463534,0.650860276977924,7.5809576218774,7.49631198228932,0.964587999406865,1.01129163777976
"250","127","1","5-1","2-4","""short""","""2-5""","""5-1""","""left""","""complex""","""ralex""",0.409232560903149,0.643812070282658,7.29336768842468,7.55152734409631,0.635639777184482,0.96581358394028
"251","127","2","3-7","2-6","""long""","""2-3""","""3-7""","""left""","""complex""","""tupabugorn""",0.362726450020568,0.491521184697655,7.30024971724876,7.4576421040624,0.73796707306459,0.978895154176425
"252","127","3","4-5","2-3","""long""","""2-4""","""2-3""","""left""","""simple""","""binivatrus""",0.393164349376114,0.60023659050397,7.2537688186413,7.45011405562092,0.65501563149625,0.973645338109759
"253","127","4","4-8","1-2","""short""","""1-4""","""4-8""","""left""","""complex""","""lopus""",0.067770971422087,0.59644761338879,7.12566153316537,7.48492849833601,0.113624348393378,0.952001282944719
"254","127","5","2-6","1-1","""long""","""1-2""","""2-6""","""left""","""complex""","""kibagronan""",0.198905525846702,0.362726450020568,7.04719236357878,7.30024971724876,0.548362342573648,0.965335794873966
"255","127","6","1-2","1-7","""short""","""1-1""","""1-7""","""left""","""simple""","""ratum""",0.226620320855615,0.067770971422087,7.21094692940482,7.12566153316537,3.34391430579019,1.01196876891254
"256","127","7","4-4","4-5","""long""","""4-4""","""4-4""","""right""","""complex""","""pakuwugnum""",0.60023659050397,0.599862745098039,7.45011405562092,7.44415965744716,1.00062321824282,1.00079987513
"257","128","0","5-8","4-2","""short""","""4-5""","""5-8""","""right""","""complex""","""wugnum""",0.601591200602591,0.627812012463534,7.38357413673939,7.5809576218774,0.958234612685965,0.973963251744292
"258","128","1","5-7","3-5","""short""","""3-5""","""3-5""","""left""","""simple""","""bugorn""",0.545940690325717,0.657452317290553,7.38057144653556,7.53194766740618,0.830388266902169,0.979902114624921
"259","128","2","5-6","5-4","""short""","""5-5""","""5-6""","""right""","""complex""","""torun""",0.614266488413547,0.598802900536869,7.52245949482209,7.46635694988485,1.02582416996112,1.007514045379
"260","128","3","2-5","2-8","""long""","""2-2""","""2-5""","""left""","""complex""","""gaburatum""",0.388259920156472,0.365537163309983,7.14928546016887,7.28993416391881,1.0621626448067,0.980706450759724
"261","128","4","1-2","1-1","""short""","""1-1""","""1-1""","""right""","""simple""","""vatrus""",0.198905525846702,0.067770971422087,7.04719236357878,7.12566153316537,2.93496642696607,0.988987805662483
"262","128","5","3-1","3-3","""long""","""3-3""","""3-1""","""left""","""complex""","""fepolopus""",0.437312451087946,0.589474738918958,7.35231805220081,7.26311607655564,0.741868009288976,1.01228150214109
"263","128","6","4-4","2-6","""long""","""2-4""","""4-4""","""right""","""complex""","""tiburalex""",0.362726450020568,0.599862745098039,7.30024971724876,7.44415965744716,0.604682409408982,0.980668074460973
"264","128","7","4-3","1-7","""long""","""1-4""","""4-3""","""left""","""complex""","""kibagronan""",0.226620320855615,0.59194499618029,7.21094692940482,7.51389426853832,0.382840166430924,0.959681713861482
"265","129","0","1-6","1-3","""long""","""1-1""","""1-3""","""left""","""simple""","""tupabugorn""",0.240463209407226,0.096151633986928,7.12022004272548,7.07781498740677,2.50087491430377,1.00599126360242
"266","129","1","3-5","2-2","""short""","""2-3""","""3-5""","""left""","""complex""","""ralex""",0.400489205783323,0.545940690325717,7.22323860108545,7.38057144653556,0.733576399195276,0.978682836879255
"267","129","2","5-1","5-5","""long""","""5-5""","""5-1""","""right""","""complex""","""gaburatum""",0.654049197860962,0.643812070282658,7.41937065134264,7.55152734409631,1.01590080094927,0.982499342618816
"268","129","3","5-4","2-7","""long""","""2-5""","""2-7""","""left""","""simple""","""binivatrus""",0.498480635229298,0.614266488413547,7.25324083665048,7.52245949482209,0.811505502305218,0.964211351572325
"269","129","4","5-7","3-6","""short""","""3-5""","""3-6""","""right""","""simple""","""gronan""",0.52237068011997,0.657452317290553,7.37717323948312,7.53194766740618,0.794537742710723,0.979450942205449
"270","129","5","2-3","1-1","""short""","""1-2""","""2-3""","""left""","""complex""","""wugnum""",0.198905525846702,0.393164349376114,7.04719236357878,7.2537688186413,0.505909363761826,0.97152150003297
"271","129","6","3-8","1-4","""short""","""1-3""","""3-8""","""right""","""complex""","""torun""",0.205391265597148,0.592708884510742,7.106017880143,7.37820860586072,0.346529756790621,0.963108833016525
"272","129","7","4-2","1-8","""long""","""1-4""","""4-2""","""right""","""complex""","""fepolopus""",0.213287175157144,0.601591200602591,7.15638039732531,7.38357413673939,0.354538389097949,0.969229842457516
"273","13","0","5-6","4-8","""long""","""4-5""","""4-8""","""right""","""simple""","""kibagronan""",0.59644761338879,0.598802900536869,7.48492849833601,7.46635694988485,0.996066673782029,1.00248736412896
"274","13","1","4-4","2-3","""short""","""2-4""","""2-3""","""left""","""simple""","""wugnum""",0.393164349376114,0.599862745098039,7.2537688186413,7.44415965744716,0.655423849187128,0.974424132801156
"275","13","2","5-7","2-5","""long""","""2-5""","""5-7""","""right""","""complex""","""binivatrus""",0.365537163309983,0.657452317290553,7.28993416391881,7.53194766740618,0.555990379372925,0.967868403476214
"276","13","3","5-3","3-7","""short""","""3-5""","""5-3""","""right""","""complex""","""ralex""",0.491521184697655,0.650860276977924,7.4576421040624,7.49631198228932,0.755186945775654,0.994841479607802
"277","13","4","5-2","5-4","""long""","""5-5""","""5-4""","""left""","""simple""","""fepolopus""",0.614266488413547,0.732388591800357,7.52245949482209,7.40911860957558,0.838716625696692,1.01529748560106
"278","13","5","4-5","1-1","""short""","""1-4""","""1-1""","""right""","""simple""","""ratum""",0.198905525846702,0.60023659050397,7.04719236357878,7.45011405562092,0.331378541384318,0.945917379380501
"279","13","6","4-1","4-2","""long""","""4-4""","""4-2""","""right""","""simple""","""mipatorun""",0.601591200602591,0.559609180035651,7.38357413673939,7.47238209549203,1.07502024996135,0.988115174302152
"280","13","7","1-8","1-6","""short""","""1-1""","""1-6""","""left""","""simple""","""bugorn""",0.096151633986928,0.213287175157144,7.07781498740677,7.15638039732531,0.450808324110843,0.989021627476943
"281","130","0","5-8","4-7","""long""","""4-5""","""4-7""","""right""","""simple""","""tupabugorn""",0.596326967150497,0.627812012463534,7.40403330391097,7.5809576218774,0.949849565334869,0.976662009367279
"282","130","1","5-2","1-4","""long""","""1-5""","""5-2""","""right""","""complex""","""gaburatum""",0.205391265597148,0.732388591800357,7.106017880143,7.40911860957558,0.280440285248375,0.959090852042664
"283","130","2","3-6","2-3","""short""","""2-3""","""2-3""","""right""","""simple""","""ralex""",0.393164349376114,0.52237068011997,7.2537688186413,7.37717323948312,0.752653937785747,0.98327212648588
"284","130","3","2-4","2-2","""short""","""2-2""","""2-2""","""right""","""simple""","""gronan""",0.400489205783323,0.409232560903149,7.22323860108545,7.29336768842468,0.97863475208197,0.990384539716744
"285","130","4","3-3","1-1","""long""","""1-3""","""3-3""","""right""","""complex""","""mipatorun""",0.198905525846702,0.437312451087946,7.04719236357878,7.35231805220081,0.454836182578074,0.958499389382279
"286","130","5","4-1","1-5","""long""","""1-4""","""4-1""","""right""","""complex""","""pakuwugnum""",0.171708853238265,0.559609180035651,7.13330511343712,7.47238209549203,0.306837091606192,0.954622638708549
"287","130","6","5-7","3-8","""short""","""3-5""","""5-7""","""right""","""complex""","""lopus""",0.592708884510742,0.657452317290553,7.37820860586072,7.53194766740618,0.901523759096892,0.979588405504893
"288","130","7","4-5","4-6","""short""","""4-4""","""4-6""","""left""","""simple""","""vatrus""",0.614648336563144,0.60023659050397,7.4808403912451,7.45011405562092,1.02401010915891,1.0041242772117
"289","131","0","5-2","2-1","""long""","""2-5""","""5-2""","""left""","""complex""","""fepolopus""",0.396717626087868,0.732388591800357,7.25000948926994,7.40911860957558,0.541676414036785,0.978525229694662
"290","131","1","5-4","5-7","""short""","""5-5""","""5-4""","""left""","""complex""","""gronan""",0.657452317290553,0.614266488413547,7.53194766740618,7.52245949482209,1.07030471251743,1.00126131255218
"291","131","2","5-5","4-3","""long""","""4-5""","""5-5""","""right""","""complex""","""pakuwugnum""",0.59194499618029,0.654049197860962,7.51389426853832,7.41937065134264,0.905046589944944,1.01274011255639
"292","131","3","4-3","2-6","""long""","""2-4""","""2-6""","""right""","""simple""","""gaburatum""",0.362726450020568,0.59194499618029,7.30024971724876,7.51389426853832,0.612770531656106,0.97156673441838
"293","131","4","4-7","4-8","""short""","""4-4""","""4-7""","""right""","""complex""","""vatrus""",0.59644761338879,0.596326967150497,7.48492849833601,7.40403330391097,1.00020231558346,1.01092582800543
"294","131","5","5-1","3-4","""long""","""3-5""","""5-1""","""left""","""complex""","""tiburalex""",0.454706120023767,0.643812070282658,7.34365297144576,7.55152734409631,0.706271505323182,0.972472539238958
"295","131","6","4-8","1-2","""short""","""1-4""","""4-8""","""right""","""complex""","""torun""",0.067770971422087,0.59644761338879,7.12566153316537,7.48492849833601,0.113624348393378,0.952001282944719
"296","131","7","1-6","1-5","""short""","""1-1""","""1-5""","""right""","""simple""","""bugorn""",0.171708853238265,0.096151633986928,7.13330511343712,7.07781498740677,1.7858131590526,1.0078400079868
"297","132","0","2-2","2-6","""long""","""2-2""","""2-6""","""left""","""simple""","""tiburalex""",0.362726450020568,0.400489205783323,7.30024971724876,7.22323860108545,0.905708430545852,1.01066157722545
"298","132","1","4-4","4-7","""long""","""4-4""","""4-7""","""right""","""simple""","""kibagronan""",0.596326967150497,0.599862745098039,7.40403330391097,7.44415965744716,0.994105688382158,0.994609686602295
"299","132","2","5-3","3-4","""long""","""3-5""","""3-4""","""left""","""simple""","""tupabugorn""",0.454706120023767,0.650860276977924,7.34365297144576,7.49631198228932,0.698623246966399,0.979635451245328
"300","132","3","5-1","4-2","""short""","""4-5""","""4-2""","""right""","""simple""","""torun""",0.601591200602591,0.643812070282658,7.38357413673939,7.55152734409631,0.934420506186642,0.977759041356286
"301","132","4","1-5","1-1","""long""","""1-1""","""1-1""","""left""","""simple""","""pakuwugnum""",0.198905525846702,0.171708853238265,7.04719236357878,7.13330511343712,1.15838829562678,0.987928071421461
"302","132","5","2-7","1-3","""short""","""1-2""","""2-7""","""left""","""complex""","""lopus""",0.240463209407226,0.498480635229298,7.12022004272548,7.25324083665048,0.482392278481619,0.981660502260886
"303","132","6","4-6","3-8","""short""","""3-4""","""3-8""","""right""","""simple""","""vatrus""",0.592708884510742,0.614648336563144,7.37820860586072,7.4808403912451,0.964305683840164,0.986280714462978
"304","132","7","4-8","1-5","""short""","""1-4""","""4-8""","""left""","""complex""","""ratum""",0.171708853238265,0.59644761338879,7.13330511343712,7.48492849833601,0.287885892044534,0.953022479108911
"305","133","0","5-1","2-2","""long""","""2-5""","""5-1""","""right""","""complex""","""tupabugorn""",0.400489205783323,0.643812070282658,7.22323860108545,7.55152734409631,0.622059175758375,0.956526841782873
"306","133","1","2-5","2-1","""short""","""2-2""","""2-1""","""right""","""simple""","""wugnum""",0.396717626087868,0.365537163309983,7.25000948926994,7.28993416391881,1.08530039051445,0.994523314785684
"307","133","2","2-6","1-4","""short""","""1-2""","""2-6""","""right""","""complex""","""ralex""",0.205391265597148,0.362726450020568,7.106017880143,7.30024971724876,0.56624286865626,0.973393809166988
"308","133","3","5-7","4-8","""long""","""4-5""","""5-7""","""right""","""complex""","""gaburatum""",0.59644761338879,0.657452317290553,7.48492849833601,7.53194766740618,0.907210451165232,0.993757369123309
"309","133","4","5-8","5-6","""long""","""5-5""","""5-6""","""left""","""simple""","""fepolopus""",0.598802900536869,0.627812012463534,7.46635694988485,7.5809576218774,0.953793314956123,0.984883087637658
"310","133","5","3-3","1-7","""short""","""1-3""","""3-3""","""left""","""complex""","""vatrus""",0.226620320855615,0.437312451087946,7.21094692940482,7.35231805220081,0.51821145337122,0.980771897816135
"311","133","6","3-2","3-3","""long""","""3-3""","""3-3""","""right""","""simple""","""mipatorun""",0.437312451087946,0.500260812458955,7.35231805220081,7.34357497749828,0.874168913887946,1.00119057471726
"312","133","7","4-4","1-5","""short""","""1-4""","""4-4""","""right""","""complex""","""gronan""",0.171708853238265,0.599862745098039,7.13330511343712,7.44415965744716,0.286246903381542,0.9582418220035
"313","134","0","3-1","1-4","""long""","""1-3""","""3-1""","""left""","""complex""","""tiburalex""",0.205391265597148,0.589474738918958,7.106017880143,7.26311607655564,0.34843098785508,0.978370413641091
"314","134","1","4-7","3-6","""long""","""3-4""","""4-7""","""right""","""complex""","""binivatrus""",0.52237068011997,0.596326967150497,7.37717323948312,7.40403330391097,0.875980307608892,0.996372238842624
"315","134","2","4-5","4-8","""short""","""4-4""","""4-8""","""right""","""simple""","""ratum""",0.59644761338879,0.60023659050397,7.48492849833601,7.45011405562092,0.993687527259878,1.00467300801775
"316","134","3","5-8","1-3","""short""","""1-5""","""1-3""","""left""","""simple""","""gronan""",0.240463209407226,0.627812012463534,7.12022004272548,7.5809576218774,0.383017853487143,0.939224356323757
"317","134","4","2-2","2-5","""short""","""2-2""","""2-2""","""right""","""complex""","""torun""",0.365537163309983,0.400489205783323,7.28993416391881,7.22323860108545,0.912726630409484,1.00923347081783
"318","134","5","2-3","1-2","""long""","""1-2""","""2-3""","""right""","""complex""","""pakuwugnum""",0.067770971422087,0.393164349376114,7.12566153316537,7.2537688186413,0.172373134872549,0.982339210322404
"319","134","6","4-4","1-1","""short""","""1-4""","""1-1""","""left""","""simple""","""bugorn""",0.198905525846702,0.599862745098039,7.04719236357878,7.44415965744716,0.331585062536587,0.946673995167305
"320","134","7","5-6","3-7","""long""","""3-5""","""3-7""","""left""","""simple""","""fepolopus""",0.491521184697655,0.598802900536869,7.4576421040624,7.46635694988485,0.820839685741288,0.998832784732776
"321","135","0","5-8","4-3","""long""","""4-5""","""4-3""","""right""","""simple""","""pakuwugnum""",0.59194499618029,0.627812012463534,7.51389426853832,7.5809576218774,0.942869815213471,0.991153709506891
"322","135","1","4-1","4-7","""long""","""4-4""","""4-7""","""right""","""simple""","""mipatorun""",0.596326967150497,0.559609180035651,7.40403330391097,7.47238209549203,1.0656132680177,0.990853145528747
"323","135","2","5-6","3-1","""short""","""3-5""","""5-6""","""left""","""complex""","""ratum""",0.589474738918958,0.598802900536869,7.26311607655564,7.46635694988485,0.984421983244324,0.972779111058661
"324","135","3","3-4","1-8","""short""","""1-3""","""1-8""","""left""","""simple""","""lopus""",0.213287175157144,0.454706120023767,7.15638039732531,7.34365297144576,0.469065987381027,0.974498716803664
"325","135","4","3-2","3-4","""long""","""3-3""","""3-4""","""right""","""simple""","""tupabugorn""",0.454706120023767,0.500260812458955,7.34365297144576,7.34357497749828,0.908938115277767,1.00001062070554
"326","135","5","5-3","1-2","""short""","""1-5""","""5-3""","""right""","""complex""","""gronan""",0.067770971422087,0.650860276977924,7.12566153316537,7.49631198228932,0.10412522290769,0.950555626553478
"327","135","6","2-7","2-5","""short""","""2-2""","""2-5""","""left""","""simple""","""ralex""",0.365537163309983,0.498480635229298,7.28993416391881,7.25324083665048,0.733302634999729,1.00505888720569
"328","135","7","4-5","2-6","""long""","""2-4""","""2-6""","""left""","""simple""","""binivatrus""",0.362726450020568,0.60023659050397,7.30024971724876,7.45011405562092,0.60430579501329,0.979884289387611
"329","136","0","3-4","1-8","""short""","""1-3""","""3-4""","""left""","""complex""","""lopus""",0.213287175157144,0.454706120023767,7.15638039732531,7.34365297144576,0.469065987381027,0.974498716803664
"330","136","1","3-1","2-2","""long""","""2-3""","""2-2""","""left""","""simple""","""tupabugorn""",0.400489205783323,0.589474738918958,7.22323860108545,7.26311607655564,0.679400115631389,0.994509591331067
"331","136","2","5-8","1-6","""short""","""1-5""","""1-6""","""left""","""simple""","""gronan""",0.096151633986928,0.627812012463534,7.07781498740677,7.5809576218774,0.153153542904713,0.933630728521863
"332","136","3","1-7","1-4","""long""","""1-1""","""1-7""","""left""","""complex""","""tiburalex""",0.205391265597148,0.226620320855615,7.106017880143,7.21094692940482,0.906323249484796,0.985448644915976
"333","136","4","2-3","1-1","""long""","""1-2""","""1-1""","""right""","""simple""","""gaburatum""",0.198905525846702,0.393164349376114,7.04719236357878,7.2537688186413,0.505909363761826,0.97152150003297
"334","136","5","4-6","1-5","""short""","""1-4""","""1-5""","""left""","""simple""","""vatrus""",0.171708853238265,0.614648336563144,7.13330511343712,7.4808403912451,0.279361128996767,0.953543283958484
"335","136","6","5-2","3-7","""short""","""3-5""","""3-7""","""right""","""simple""","""wugnum""",0.491521184697655,0.732388591800357,7.4576421040624,7.40911860957558,0.671120755020771,1.00654915881953
"336","136","7","4-5","3-3","""long""","""3-4""","""4-5""","""right""","""complex""","""mipatorun""",0.437312451087946,0.60023659050397,7.35231805220081,7.45011405562092,0.728566798503187,0.98687322063931
"337","137","0","2-5","2-1","""long""","""2-2""","""2-1""","""left""","""simple""","""gaburatum""",0.396717626087868,0.365537163309983,7.25000948926994,7.28993416391881,1.08530039051445,0.994523314785684
"338","137","1","3-8","2-6","""long""","""2-3""","""2-6""","""right""","""simple""","""binivatrus""",0.362726450020568,0.592708884510742,7.30024971724876,7.37820860586072,0.611980787701511,0.989433900181402
"339","137","2","1-3","1-4","""short""","""1-1""","""1-3""","""right""","""complex""","""wugnum""",0.205391265597148,0.240463209407226,7.106017880143,7.12022004272548,0.854148400096069,0.998005375887647
"340","137","3","4-7","4-5","""long""","""4-4""","""4-7""","""left""","""complex""","""tiburalex""",0.60023659050397,0.596326967150497,7.45011405562092,7.40403330391097,1.0065561739932,1.0062237364175
"341","137","4","5-1","1-7","""short""","""1-5""","""5-1""","""right""","""complex""","""torun""",0.226620320855615,0.643812070282658,7.21094692940482,7.55152734409631,0.351997626816969,0.954899135079243
"342","137","5","4-4","2-3","""short""","""2-4""","""4-4""","""left""","""complex""","""lopus""",0.393164349376114,0.599862745098039,7.2537688186413,7.44415965744716,0.655423849187128,0.974424132801156
"343","137","6","5-2","4-8","""short""","""4-5""","""4-8""","""right""","""simple""","""gronan""",0.59644761338879,0.732388591800357,7.48492849833601,7.40911860957558,0.814386816051576,1.01023197127152
"344","137","7","5-6","5-2","""long""","""5-5""","""5-2""","""right""","""simple""","""tupabugorn""",0.732388591800357,0.598802900536869,7.40911860957558,7.46635694988485,1.2230879161469,0.99233383285939
"345","138","0","4-7","4-5","""short""","""4-4""","""4-7""","""right""","""complex""","""wugnum""",0.60023659050397,0.596326967150497,7.45011405562092,7.40403330391097,1.0065561739932,1.0062237364175
"346","138","1","5-6","3-1","""long""","""3-5""","""5-6""","""left""","""complex""","""binivatrus""",0.589474738918958,0.598802900536869,7.26311607655564,7.46635694988485,0.984421983244324,0.972779111058661
"347","138","2","4-2","3-8","""short""","""3-4""","""4-2""","""left""","""complex""","""lopus""",0.592708884510742,0.601591200602591,7.37820860586072,7.38357413673939,0.985235295857134,0.999273315229277
"348","138","3","5-5","4-4","""short""","""4-5""","""4-4""","""left""","""simple""","""torun""",0.599862745098039,0.654049197860962,7.44415965744716,7.41937065134264,0.917152328998893,1.00334111978892
"349","138","4","2-1","2-7","""long""","""2-2""","""2-7""","""right""","""simple""","""tiburalex""",0.498480635229298,0.396717626087868,7.25324083665048,7.25000948926994,1.25651244726618,1.00044570250361
"350","138","5","3-3","2-2","""short""","""2-3""","""2-2""","""left""","""simple""","""gronan""",0.400489205783323,0.437312451087946,7.22323860108545,7.35231805220081,0.915796485526506,0.982443706841991
"351","138","6","5-8","2-3","""long""","""2-5""","""5-8""","""left""","""complex""","""tupabugorn""",0.393164349376114,0.627812012463534,7.2537688186413,7.5809576218774,0.6262453434641,0.956840702777194
"352","138","7","3-4","3-6","""long""","""3-3""","""3-6""","""left""","""simple""","""gaburatum""",0.52237068011997,0.454706120023767,7.37717323948312,7.34365297144576,1.14880943342629,1.00456452233891
"353","139","0","2-2","2-4","""long""","""2-2""","""2-2""","""right""","""complex""","""binivatrus""",0.409232560903149,0.400489205783323,7.29336768842468,7.22323860108545,1.02183168733031,1.00970881500837
"354","139","1","4-5","2-8","""long""","""2-4""","""2-8""","""right""","""simple""","""tupabugorn""",0.388259920156472,0.60023659050397,7.14928546016887,7.45011405562092,0.646844804696897,0.959620940940484
"355","139","2","5-8","4-3","""long""","""4-5""","""5-8""","""left""","""complex""","""kibagronan""",0.59194499618029,0.627812012463534,7.51389426853832,7.5809576218774,0.942869815213471,0.991153709506891
"356","139","3","3-4","1-2","""short""","""1-3""","""1-2""","""left""","""simple""","""ralex""",0.067770971422087,0.454706120023767,7.12566153316537,7.34365297144576,0.149043455624799,0.970315667266958
"357","139","4","5-3","1-7","""long""","""1-5""","""1-7""","""right""","""simple""","""gaburatum""",0.226620320855615,0.650860276977924,7.21094692940482,7.49631198228932,0.348185822474616,0.961932607186214
"358","139","5","4-6","1-5","""short""","""1-4""","""4-6""","""right""","""complex""","""wugnum""",0.171708853238265,0.614648336563144,7.13330511343712,7.4808403912451,0.279361128996767,0.953543283958484
"359","139","6","1-1","1-6","""short""","""1-1""","""1-1""","""left""","""complex""","""torun""",0.096151633986928,0.198905525846702,7.07781498740677,7.04719236357878,0.483403533298682,1.00434536511111
"360","139","7","5-7","2-1","""short""","""2-5""","""5-7""","""left""","""complex""","""lopus""",0.396717626087868,0.657452317290553,7.25000948926994,7.53194766740618,0.603416575855711,0.962567692901492
"361","14","0","4-3","4-4","""short""","""4-4""","""4-4""","""right""","""simple""","""torun""",0.599862745098039,0.59194499618029,7.44415965744716,7.51389426853832,1.01337581864673,0.990719245094631
"362","14","1","5-5","2-3","""short""","""2-5""","""2-3""","""right""","""simple""","""ralex""",0.393164349376114,0.654049197860962,7.2537688186413,7.41937065134264,0.601123509763394,0.977679800554057
"363","14","2","4-2","3-1","""short""","""3-4""","""3-1""","""right""","""simple""","""gronan""",0.589474738918958,0.601591200602591,7.26311607655564,7.38357413673939,0.979859310323196,0.983685670658554
"364","14","3","5-4","3-5","""short""","""3-5""","""5-4""","""left""","""complex""","""wugnum""",0.545940690325717,0.614266488413547,7.38057144653556,7.52245949482209,0.888768475284573,0.981138077462006
"365","14","4","4-6","1-8","""long""","""1-4""","""4-6""","""left""","""complex""","""fepolopus""",0.213287175157144,0.614648336563144,7.15638039732531,7.4808403912451,0.347006837031003,0.956627868401054
"366","14","5","3-7","2-6","""long""","""2-3""","""2-6""","""right""","""simple""","""tupabugorn""",0.362726450020568,0.491521184697655,7.30024971724876,7.4576421040624,0.73796707306459,0.978895154176425
"367","14","6","1-8","1-2","""long""","""1-1""","""1-2""","""right""","""simple""","""binivatrus""",0.067770971422087,0.213287175157144,7.12566153316537,7.15638039732531,0.31774517793747,0.995707485844182
"368","14","7","3-1","1-7","""long""","""1-3""","""3-1""","""left""","""complex""","""gaburatum""",0.226620320855615,0.589474738918958,7.21094692940482,7.26311607655564,0.384444499303254,0.99281724997908
"369","140","0","5-1","4-8","""short""","""4-5""","""5-1""","""right""","""complex""","""lopus""",0.59644761338879,0.643812070282658,7.48492849833601,7.55152734409631,0.926431238120352,0.991180744937332
"370","140","1","5-4","5-7","""short""","""5-5""","""5-4""","""right""","""complex""","""torun""",0.657452317290553,0.614266488413547,7.53194766740618,7.52245949482209,1.07030471251743,1.00126131255218
"371","140","2","4-8","4-5","""short""","""4-4""","""4-5""","""left""","""simple""","""ratum""",0.60023659050397,0.59644761338879,7.45011405562092,7.48492849833601,1.00635257318518,0.995348727416324
"372","140","3","4-7","3-1","""long""","""3-4""","""4-7""","""right""","""complex""","""kibagronan""",0.589474738918958,0.596326967150497,7.26311607655564,7.40403330391097,0.988509276606621,0.980967504929929
"373","140","4","3-2","3-6","""long""","""3-3""","""3-6""","""left""","""simple""","""binivatrus""",0.52237068011997,0.500260812458955,7.37717323948312,7.34357497749828,1.04419668123181,1.0045751915229
"374","140","5","3-3","2-4","""long""","""2-3""","""2-4""","""right""","""simple""","""tupabugorn""",0.409232560903149,0.437312451087946,7.29336768842468,7.35231805220081,0.935789868056718,0.991982071047854
"375","140","6","5-6","2-2","""long""","""2-5""","""2-2""","""right""","""simple""","""pakuwugnum""",0.400489205783323,0.598802900536869,7.22323860108545,7.46635694988485,0.668816409246275,0.967438156194347
"376","140","7","5-5","1-3","""short""","""1-5""","""1-3""","""left""","""simple""","""ralex""",0.240463209407226,0.654049197860962,7.12022004272548,7.41937065134264,0.367653091225629,0.959679786510865
"377","141","0","4-5","4-6","""long""","""4-4""","""4-6""","""left""","""simple""","""kibagronan""",0.614648336563144,0.60023659050397,7.4808403912451,7.45011405562092,1.02401010915891,1.0041242772117
"378","141","1","5-1","2-5","""long""","""2-5""","""2-5""","""right""","""simple""","""mipatorun""",0.365537163309983,0.643812070282658,7.28993416391881,7.55152734409631,0.567769975405243,0.965358904462948
"379","141","2","3-2","1-8","""short""","""1-3""","""1-8""","""left""","""simple""","""vatrus""",0.213287175157144,0.500260812458955,7.15638039732531,7.34357497749828,0.426351954511015,0.974509066667589
"380","141","3","5-7","1-4","""long""","""1-5""","""5-7""","""left""","""complex""","""pakuwugnum""",0.205391265597148,0.657452317290553,7.106017880143,7.53194766740618,0.312404808980813,0.943450246062336
"381","141","4","4-4","2-2","""short""","""2-4""","""4-4""","""left""","""complex""","""bugorn""",0.400489205783323,0.599862745098039,7.22323860108545,7.44415965744716,0.667634736539387,0.970322901908653
"382","141","5","5-8","3-1","""short""","""3-5""","""5-8""","""left""","""complex""","""lopus""",0.589474738918958,0.627812012463534,7.26311607655564,7.5809576218774,0.938935106714284,0.95807369448887
"383","141","6","5-3","4-7","""long""","""4-5""","""4-7""","""left""","""simple""","""gaburatum""",0.596326967150497,0.650860276977924,7.40403330391097,7.49631198228932,0.916213491963842,0.987690123010306
"384","141","7","1-6","1-3","""short""","""1-1""","""1-6""","""right""","""complex""","""ralex""",0.240463209407226,0.096151633986928,7.12022004272548,7.07781498740677,2.50087491430377,1.00599126360242
"385","142","0","3-6","1-2","""long""","""1-3""","""3-6""","""left""","""complex""","""gaburatum""",0.067770971422087,0.52237068011997,7.12566153316537,7.37717323948312,0.129737318730298,0.965906764264171
"386","142","1","4-5","4-4","""long""","""4-4""","""4-4""","""left""","""simple""","""fepolopus""",0.599862745098039,0.60023659050397,7.44415965744716,7.45011405562092,0.999377169916254,0.99920076415887
"387","142","2","3-1","3-7","""long""","""3-3""","""3-7""","""right""","""simple""","""tupabugorn""",0.491521184697655,0.589474738918958,7.4576421040624,7.26311607655564,0.833829089265232,1.02678272320811
"388","142","3","5-8","5-1","""short""","""5-5""","""5-1""","""right""","""simple""","""torun""",0.643812070282658,0.627812012463534,7.55152734409631,7.5809576218774,1.02548542796488,0.996117868051899
"389","142","4","2-7","2-5","""short""","""2-2""","""2-5""","""right""","""simple""","""ralex""",0.365537163309983,0.498480635229298,7.28993416391881,7.25324083665048,0.733302634999729,1.00505888720569
"390","142","5","4-4","1-6","""long""","""1-4""","""4-4""","""left""","""complex""","""pakuwugnum""",0.096151633986928,0.599862745098039,7.07781498740677,7.44415965744716,0.16028939081925,0.950787639317502
"391","142","6","3-3","2-8","""short""","""2-3""","""2-8""","""right""","""simple""","""vatrus""",0.388259920156472,0.437312451087946,7.14928546016887,7.35231805220081,0.887831844692642,0.972385227272484
"392","142","7","5-2","2-3","""short""","""2-5""","""5-2""","""left""","""complex""","""gronan""",0.393164349376114,0.732388591800357,7.2537688186413,7.40911860957558,0.536824786428797,0.979032621945948
"393","143","0","4-4","3-1","""short""","""3-4""","""4-4""","""left""","""complex""","""gronan""",0.589474738918958,0.599862745098039,7.26311607655564,7.44415965744716,0.982682694893174,0.975679782645392
"394","143","1","3-6","3-5","""long""","""3-3""","""3-6""","""left""","""complex""","""tiburalex""",0.545940690325717,0.52237068011997,7.38057144653556,7.37717323948312,1.04512123498266,1.00046063809838
"395","143","2","5-8","1-4","""long""","""1-5""","""5-8""","""right""","""complex""","""tupabugorn""",0.205391265597148,0.627812012463534,7.106017880143,7.5809576218774,0.327154086764273,0.937350956775724
"396","143","3","4-3","1-7","""short""","""1-4""","""1-7""","""right""","""simple""","""ratum""",0.226620320855615,0.59194499618029,7.21094692940482,7.51389426853832,0.382840166430924,0.959681713861482
"397","143","4","4-2","4-8","""short""","""4-4""","""4-2""","""left""","""complex""","""lopus""",0.59644761338879,0.601591200602591,7.48492849833601,7.38357413673939,0.99145002917488,1.01372700533909
"398","143","5","5-1","3-3","""short""","""3-5""","""3-3""","""left""","""simple""","""vatrus""",0.437312451087946,0.643812070282658,7.35231805220081,7.55152734409631,0.679254818717439,0.973619999926076
"399","143","6","3-7","2-6","""long""","""2-3""","""2-6""","""left""","""simple""","""pakuwugnum""",0.362726450020568,0.491521184697655,7.30024971724876,7.4576421040624,0.73796707306459,0.978895154176425
"400","143","7","2-5","2-2","""long""","""2-2""","""2-2""","""right""","""simple""","""mipatorun""",0.400489205783323,0.365537163309983,7.22323860108545,7.28993416391881,1.09561830090502,0.990851006149896
"401","144","0","3-1","1-3","""short""","""1-3""","""1-3""","""left""","""simple""","""vatrus""",0.240463209407226,0.589474738918958,7.12022004272548,7.26311607655564,0.407927928935875,0.980325795109979
"402","144","1","3-5","3-2","""short""","""3-3""","""3-2""","""right""","""simple""","""ralex""",0.500260812458955,0.545940690325717,7.34357497749828,7.38057144653556,0.916328131102467,0.99498731645574
"403","144","2","5-3","4-7","""short""","""4-5""","""4-7""","""right""","""simple""","""ratum""",0.596326967150497,0.650860276977924,7.40403330391097,7.49631198228932,0.916213491963842,0.987690123010306
"404","144","3","4-4","4-8","""long""","""4-4""","""4-4""","""left""","""complex""","""pakuwugnum""",0.59644761338879,0.599862745098039,7.48492849833601,7.44415965744716,0.994306811454526,1.00547662097065
"405","144","4","2-6","1-4","""long""","""1-2""","""2-6""","""right""","""complex""","""mipatorun""",0.205391265597148,0.362726450020568,7.106017880143,7.30024971724876,0.56624286865626,0.973393809166988
"406","144","5","5-8","5-5","""long""","""5-5""","""5-5""","""left""","""simple""","""kibagronan""",0.654049197860962,0.627812012463534,7.41937065134264,7.5809576218774,1.04179146763133,0.978685150531848
"407","144","6","4-2","1-6","""long""","""1-4""","""1-6""","""right""","""simple""","""fepolopus""",0.096151633986928,0.601591200602591,7.07781498740677,7.38357413673939,0.159828857022205,0.958589276186554
"408","144","7","5-7","3-1","""short""","""3-5""","""3-1""","""left""","""simple""","""bugorn""",0.589474738918958,0.657452317290553,7.26311607655564,7.53194766740618,0.896604549738695,0.964307825449467
"409","145","0","5-2","3-7","""short""","""3-5""","""5-2""","""right""","""complex""","""wugnum""",0.491521184697655,0.732388591800357,7.4576421040624,7.40911860957558,0.671120755020771,1.00654915881953
"410","145","1","4-4","1-1","""long""","""1-4""","""4-4""","""right""","""complex""","""mipatorun""",0.198905525846702,0.599862745098039,7.04719236357878,7.44415965744716,0.331585062536587,0.946673995167305
"411","145","2","4-1","2-5","""long""","""2-4""","""4-1""","""left""","""complex""","""gaburatum""",0.365537163309983,0.559609180035651,7.28993416391881,7.47238209549203,0.65320079861216,0.97558369884708
"412","145","3","3-3","1-2","""long""","""1-3""","""1-2""","""left""","""simple""","""tiburalex""",0.067770971422087,0.437312451087946,7.12566153316537,7.35231805220081,0.154971511223809,0.969172100903933
"413","145","4","2-5","2-3","""short""","""2-2""","""2-3""","""left""","""simple""","""gronan""",0.393164349376114,0.365537163309983,7.2537688186413,7.28993416391881,1.07557969158584,0.995039002484205
"414","145","5","5-7","1-4","""short""","""1-5""","""1-4""","""left""","""simple""","""vatrus""",0.205391265597148,0.657452317290553,7.106017880143,7.53194766740618,0.312404808980813,0.943450246062336
"415","145","6","2-6","1-8","""short""","""1-2""","""1-8""","""right""","""simple""","""bugorn""",0.213287175157144,0.362726450020568,7.15638039732531,7.30024971724876,0.588011089748348,0.980292548132495
"416","145","7","3-8","3-6","""long""","""3-3""","""3-8""","""left""","""complex""","""fepolopus""",0.52237068011997,0.592708884510742,7.37717323948312,7.37820860586072,0.881327568678453,0.99985967239029
"417","146","0","4-6","3-7","""long""","""3-4""","""4-6""","""right""","""complex""","""fepolopus""",0.491521184697655,0.614648336563144,7.4576421040624,7.4808403912451,0.799678703185037,0.996898973114057
"418","146","1","3-5","2-6","""long""","""2-3""","""2-6""","""left""","""simple""","""binivatrus""",0.362726450020568,0.545940690325717,7.30024971724876,7.38057144653556,0.664406329200631,0.989117139523864
"419","146","2","3-1","1-2","""long""","""1-3""","""3-1""","""left""","""complex""","""mipatorun""",0.067770971422087,0.589474738918958,7.12566153316537,7.26311607655564,0.114968406528111,0.981074990136265
"420","146","3","5-7","2-8","""short""","""2-5""","""5-7""","""right""","""complex""","""bugorn""",0.388259920156472,0.657452317290553,7.14928546016887,7.53194766740618,0.590552211841829,0.949194786775638
"421","146","4","5-3","3-4","""short""","""3-5""","""3-4""","""right""","""simple""","""wugnum""",0.454706120023767,0.650860276977924,7.34365297144576,7.49631198228932,0.698623246966399,0.979635451245328
"422","146","5","1-4","1-1","""long""","""1-1""","""1-4""","""left""","""complex""","""kibagronan""",0.198905525846702,0.205391265597148,7.04719236357878,7.106017880143,0.968422514309021,0.991721732543257
"423","146","6","2-2","1-5","""short""","""1-2""","""1-5""","""left""","""simple""","""ralex""",0.171708853238265,0.400489205783323,7.13330511343712,7.22323860108545,0.428747768375972,0.987549423102981
"424","146","7","4-8","4-3","""short""","""4-4""","""4-3""","""left""","""simple""","""ratum""",0.59194499618029,0.59644761338879,7.51389426853832,7.48492849833601,0.992450942702381,1.00386987934604
"425","147","0","4-2","3-7","""long""","""3-4""","""3-7""","""left""","""simple""","""binivatrus""",0.491521184697655,0.601591200602591,7.4576421040624,7.38357413673939,0.817035196334848,1.01003145169959
"426","147","1","5-6","2-2","""short""","""2-5""","""5-6""","""right""","""complex""","""gronan""",0.400489205783323,0.598802900536869,7.22323860108545,7.46635694988485,0.668816409246275,0.967438156194347
"427","147","2","4-8","4-1","""long""","""4-4""","""4-1""","""left""","""simple""","""tupabugorn""",0.559609180035651,0.59644761338879,7.47238209549203,7.48492849833601,0.93823693392981,0.998323777862839
"428","147","3","3-5","2-4","""long""","""2-3""","""2-4""","""right""","""simple""","""mipatorun""",0.409232560903149,0.545940690325717,7.29336768842468,7.38057144653556,0.749591609775403,0.988184687494379
"429","147","4","5-3","1-5","""short""","""1-5""","""1-5""","""right""","""simple""","""ralex""",0.171708853238265,0.650860276977924,7.13330511343712,7.49631198228932,0.263818302194665,0.951575271985767
"430","147","5","5-7","5-6","""short""","""5-5""","""5-7""","""right""","""complex""","""lopus""",0.598802900536869,0.657452317290553,7.46635694988485,7.53194766740618,0.910792896745142,0.991291665792479
"431","147","6","2-4","1-3","""short""","""1-2""","""2-4""","""left""","""complex""","""wugnum""",0.240463209407226,0.409232560903149,7.12022004272548,7.29336768842468,0.58759549552103,0.976259575398344
"432","147","7","1-1","1-8","""long""","""1-1""","""1-8""","""right""","""simple""","""gaburatum""",0.213287175157144,0.198905525846702,7.15638039732531,7.04719236357878,1.07230392041258,1.01549383472358
"433","148","0","1-5","1-4","""short""","""1-1""","""1-5""","""left""","""complex""","""ratum""",0.205391265597148,0.171708853238265,7.106017880143,7.13330511343712,1.19616002159274,0.996174671788156
"434","148","1","3-8","1-6","""short""","""1-3""","""1-6""","""right""","""simple""","""bugorn""",0.096151633986928,0.592708884510742,7.07781498740677,7.37820860586072,0.162224047082232,0.959286374986018
"435","148","2","2-2","2-7","""long""","""2-2""","""2-7""","""right""","""simple""","""fepolopus""",0.498480635229298,0.400489205783323,7.25324083665048,7.22323860108545,1.24467932726005,1.00415357116412
"436","148","3","4-6","3-3","""short""","""3-4""","""3-3""","""left""","""simple""","""wugnum""",0.437312451087946,0.614648336563144,7.35231805220081,7.4808403912451,0.711483990232877,0.982819799337692
"437","148","4","5-4","1-5","""short""","""1-5""","""5-4""","""right""","""complex""","""vatrus""",0.171708853238265,0.614266488413547,7.13330511343712,7.52245949482209,0.279534789015975,0.948267666758081
"438","148","5","2-3","1-8","""long""","""1-2""","""1-8""","""left""","""simple""","""tiburalex""",0.213287175157144,0.393164349376114,7.15638039732531,7.2537688186413,0.542488594135239,0.986574093584881
"439","148","6","4-1","4-2","""long""","""4-4""","""4-2""","""right""","""simple""","""kibagronan""",0.601591200602591,0.559609180035651,7.38357413673939,7.47238209549203,1.07502024996135,0.988115174302152
"440","148","7","4-7","2-1","""long""","""2-4""","""4-7""","""right""","""complex""","""mipatorun""",0.396717626087868,0.596326967150497,7.25000948926994,7.40403330391097,0.665268632715963,0.979197309315225
"441","149","0","1-3","1-1","""short""","""1-1""","""1-1""","""left""","""simple""","""bugorn""",0.198905525846702,0.240463209407226,7.04719236357878,7.12022004272548,0.827176541214062,0.989743620462782
"442","149","1","3-8","1-3","""short""","""1-3""","""1-3""","""right""","""simple""","""vatrus""",0.240463209407226,0.592708884510742,7.12022004272548,7.37820860586072,0.405702049844788,0.965033712528769
"443","149","2","3-4","3-6","""long""","""3-3""","""3-4""","""left""","""complex""","""pakuwugnum""",0.52237068011997,0.454706120023767,7.37717323948312,7.34365297144576,1.14880943342629,1.00456452233891
"444","149","3","5-7","2-4","""long""","""2-5""","""5-7""","""right""","""complex""","""kibagronan""",0.409232560903149,0.657452317290553,7.29336768842468,7.53194766740618,0.622452077725804,0.968324264915709
"445","149","4","4-2","1-7","""short""","""1-4""","""1-7""","""right""","""simple""","""ralex""",0.226620320855615,0.601591200602591,7.21094692940482,7.38357413673939,0.376701521944832,0.976620102387053
"446","149","5","2-5","2-8","""long""","""2-2""","""2-5""","""right""","""complex""","""fepolopus""",0.388259920156472,0.365537163309983,7.14928546016887,7.28993416391881,1.0621626448067,0.980706450759724
"447","149","6","3-1","2-2","""long""","""2-3""","""3-1""","""left""","""complex""","""gaburatum""",0.400489205783323,0.589474738918958,7.22323860108545,7.26311607655564,0.679400115631389,0.994509591331067
"448","149","7","5-6","5-5","""short""","""5-5""","""5-5""","""left""","""simple""","""torun""",0.654049197860962,0.598802900536869,7.41937065134264,7.46635694988485,1.09226123867229,0.993706931123493
"449","15","0","5-5","4-8","""short""","""4-5""","""5-5""","""right""","""complex""","""bugorn""",0.59644761338879,0.654049197860962,7.48492849833601,7.41937065134264,0.911930807864981,1.00883603880627
"450","15","1","5-7","1-4","""short""","""1-5""","""1-4""","""right""","""simple""","""gronan""",0.205391265597148,0.657452317290553,7.106017880143,7.53194766740618,0.312404808980813,0.943450246062336
"451","15","2","4-6","4-1","""long""","""4-4""","""4-1""","""right""","""simple""","""tiburalex""",0.559609180035651,0.614648336563144,7.47238209549203,7.4808403912451,0.910454233334057,0.998869338829502
"452","15","3","4-3","3-2","""short""","""3-4""","""3-2""","""right""","""simple""","""ratum""",0.500260812458955,0.59194499618029,7.34357497749828,7.51389426853832,0.84511367726232,0.977332753835359
"453","15","4","4-8","2-5","""long""","""2-4""","""4-8""","""left""","""complex""","""binivatrus""",0.365537163309983,0.59644761338879,7.28993416391881,7.48492849833601,0.612857114530376,0.973948403854419
"454","15","5","5-1","3-3","""short""","""3-5""","""3-3""","""left""","""simple""","""lopus""",0.437312451087946,0.643812070282658,7.35231805220081,7.55152734409631,0.679254818717439,0.973619999926076
"455","15","6","1-4","1-7","""long""","""1-1""","""1-7""","""right""","""simple""","""mipatorun""",0.226620320855615,0.205391265597148,7.21094692940482,7.106017880143,1.10335909463699,1.01476622364757
"456","15","7","3-2","2-6","""long""","""2-3""","""2-6""","""left""","""simple""","""pakuwugnum""",0.362726450020568,0.500260812458955,7.30024971724876,7.34357497749828,0.725074683019127,0.994100249485806
"457","150","0","3-3","1-6","""long""","""1-3""","""3-3""","""left""","""complex""","""gaburatum""",0.096151633986928,0.437312451087946,7.07781498740677,7.35231805220081,0.219869417730325,0.962664419187922
"458","150","1","4-5","4-8","""short""","""4-4""","""4-5""","""left""","""complex""","""bugorn""",0.59644761338879,0.60023659050397,7.48492849833601,7.45011405562092,0.993687527259878,1.00467300801775
"459","150","2","5-8","4-3","""long""","""4-5""","""5-8""","""right""","""complex""","""fepolopus""",0.59194499618029,0.627812012463534,7.51389426853832,7.5809576218774,0.942869815213471,0.991153709506891
"460","150","3","1-1","1-5","""long""","""1-1""","""1-5""","""left""","""simple""","""binivatrus""",0.171708853238265,0.198905525846702,7.13330511343712,7.04719236357878,0.863268390897306,1.01221944079509
"461","150","4","2-2","2-7","""short""","""2-2""","""2-2""","""right""","""complex""","""gronan""",0.498480635229298,0.400489205783323,7.25324083665048,7.22323860108545,1.24467932726005,1.00415357116412
"462","150","5","5-7","2-2","""long""","""2-5""","""5-7""","""left""","""complex""","""pakuwugnum""",0.400489205783323,0.657452317290553,7.22323860108545,7.53194766740618,0.609153234768099,0.959013381405099
"463","150","6","2-6","1-4","""short""","""1-2""","""2-6""","""right""","""complex""","""torun""",0.205391265597148,0.362726450020568,7.106017880143,7.30024971724876,0.56624286865626,0.973393809166988
"464","150","7","4-4","1-1","""short""","""1-4""","""4-4""","""left""","""complex""","""ralex""",0.198905525846702,0.599862745098039,7.04719236357878,7.44415965744716,0.331585062536587,0.946673995167305
"465","151","0","5-7","1-3","""short""","""1-5""","""5-7""","""right""","""complex""","""gronan""",0.240463209407226,0.657452317290553,7.12022004272548,7.53194766740618,0.365750037049388,0.945335835714524
"466","151","1","4-6","1-1","""short""","""1-4""","""1-1""","""left""","""simple""","""ralex""",0.198905525846702,0.614648336563144,7.04719236357878,7.4808403912451,0.323608662082937,0.942032177537991
"467","151","2","5-5","3-8","""short""","""3-5""","""3-8""","""left""","""simple""","""vatrus""",0.592708884510742,0.654049197860962,7.37820860586072,7.41937065134264,0.906214527055716,0.994452083954793
"468","151","3","2-8","1-2","""long""","""1-2""","""2-8""","""left""","""complex""","""mipatorun""",0.067770971422087,0.388259920156472,7.12566153316537,7.14928546016887,0.174550521194088,0.996695624040316
"469","151","4","4-4","4-6","""long""","""4-4""","""4-6""","""left""","""simple""","""pakuwugnum""",0.614648336563144,0.599862745098039,7.4808403912451,7.44415965744716,1.02464829093977,1.00492745124848
"470","151","5","3-3","2-5","""long""","""2-3""","""3-3""","""right""","""complex""","""tupabugorn""",0.365537163309983,0.437312451087946,7.28993416391881,7.35231805220081,0.835871840375456,0.991515072139279
"471","151","6","5-1","5-7","""short""","""5-5""","""5-1""","""right""","""complex""","""lopus""",0.657452317290553,0.643812070282658,7.53194766740618,7.55152734409631,1.0211866903985,0.997407189857369
"472","151","7","4-2","2-4","""long""","""2-4""","""2-4""","""left""","""simple""","""gaburatum""",0.409232560903149,0.601591200602591,7.29336768842468,7.38357413673939,0.680250243842058,0.987782820806815
"473","152","0","4-3","1-4","""long""","""1-4""","""4-3""","""left""","""complex""","""tupabugorn""",0.205391265597148,0.59194499618029,7.106017880143,7.51389426853832,0.346976943672975,0.945717044475439
"474","152","1","2-1","2-5","""short""","""2-2""","""2-5""","""right""","""simple""","""torun""",0.365537163309983,0.396717626087868,7.28993416391881,7.25000948926994,0.921403888490251,1.00550684446799
"475","152","2","5-2","4-7","""long""","""4-5""","""5-2""","""right""","""complex""","""pakuwugnum""",0.596326967150497,0.732388591800357,7.40403330391097,7.40911860957558,0.814222086235132,0.999313642292345
"476","152","3","5-4","5-8","""short""","""5-5""","""5-4""","""left""","""complex""","""vatrus""",0.627812012463534,0.614266488413547,7.5809576218774,7.52245949482209,1.02205154327232,1.00777646288366
"477","152","4","5-5","3-6","""long""","""3-5""","""5-5""","""left""","""complex""","""gaburatum""",0.52237068011997,0.654049197860962,7.37717323948312,7.41937065134264,0.798671845831108,0.994312534870881
"478","152","5","4-8","2-1","""long""","""2-4""","""2-1""","""right""","""simple""","""tiburalex""",0.396717626087868,0.59644761338879,7.25000948926994,7.48492849833601,0.665134065729374,0.968614395031523
"479","152","6","5-6","1-2","""short""","""1-5""","""5-6""","""right""","""complex""","""gronan""",0.067770971422087,0.598802900536869,7.12566153316537,7.46635694988485,0.113177426764843,0.95436925678664
"480","152","7","3-7","2-3","""short""","""2-3""","""2-3""","""right""","""simple""","""lopus""",0.393164349376114,0.491521184697655,7.2537688186413,7.4576421040624,0.799892988575778,0.972662500750734
"481","153","0","4-6","4-8","""long""","""4-4""","""4-8""","""right""","""simple""","""binivatrus""",0.59644761338879,0.614648336563144,7.48492849833601,7.4808403912451,0.970388395946657,1.00054647698348
"482","153","1","1-4","1-1","""long""","""1-1""","""1-4""","""right""","""complex""","""kibagronan""",0.198905525846702,0.205391265597148,7.04719236357878,7.106017880143,0.968422514309021,0.991721732543257
"483","153","2","3-8","2-2","""short""","""2-3""","""2-2""","""left""","""simple""","""lopus""",0.400489205783323,0.592708884510742,7.22323860108545,7.37820860586072,0.675692935012964,0.978996255994691
"484","153","3","5-3","1-4","""long""","""1-5""","""1-4""","""left""","""simple""","""mipatorun""",0.205391265597148,0.650860276977924,7.106017880143,7.49631198228932,0.31556890604973,0.947935184252147
"485","153","4","5-7","3-5","""short""","""3-5""","""5-7""","""right""","""complex""","""ralex""",0.545940690325717,0.657452317290553,7.38057144653556,7.53194766740618,0.830388266902169,0.979902114624921
"486","153","5","4-2","1-7","""short""","""1-4""","""4-2""","""left""","""complex""","""wugnum""",0.226620320855615,0.601591200602591,7.21094692940482,7.38357413673939,0.376701521944832,0.976620102387053
"487","153","6","5-1","5-6","""long""","""5-5""","""5-6""","""right""","""simple""","""tupabugorn""",0.598802900536869,0.643812070282658,7.46635694988485,7.55152734409631,0.930089583865633,0.988721434707107
"488","153","7","2-5","2-3","""short""","""2-2""","""2-3""","""left""","""simple""","""ratum""",0.393164349376114,0.365537163309983,7.2537688186413,7.28993416391881,1.07557969158584,0.995039002484205
"489","154","0","3-2","2-4","""short""","""2-3""","""2-4""","""left""","""simple""","""ratum""",0.409232560903149,0.500260812458955,7.29336768842468,7.34357497749828,0.818038412586485,0.993163099821621
"490","154","1","5-1","3-5","""short""","""3-5""","""5-1""","""left""","""complex""","""vatrus""",0.545940690325717,0.643812070282658,7.38057144653556,7.55152734409631,0.847981446023571,0.977361414483336
