"","workerid","trial","criticalComplicated","criticalSimple","langCondition","objCondition","response","responseSide","responseValue","word","criticalSimple_c.norms","criticalComplicated_c.norms","criticalSimple_rt.norms","criticalComplicated_rt.norms","c.ratio","rt.ratio"
"1","A05062513MWBSOJW7FC52","0","46","11","""long""","""1-4""","""4-6""","""left""","""complex""","""tiburalex""",0.198905525846702,0.614648336563144,7.04719236357878,7.4808403912451,0.323608662082937,0.942032177537991
"2","A05062513MWBSOJW7FC52","1","52","43","""short""","""4-5""","""5-2""","""right""","""complex""","""torun""",0.59194499618029,0.732388591800357,7.51389426853832,7.40911860957558,0.808238963314777,1.01414144711185
"3","A05062513MWBSOJW7FC52","2","38","34","""long""","""3-3""","""3-4""","""right""","""simple""","""kibagronan""",0.454706120023767,0.592708884510742,7.34365297144576,7.37820860586072,0.767166026875249,0.995316527864567
"4","A05062513MWBSOJW7FC52","3","27","18","""long""","""1-2""","""2-7""","""right""","""complex""","""tupabugorn""",0.213287175157144,0.498480635229298,7.15638039732531,7.25324083665048,0.427874545335213,0.986645908841778
"5","A05062513MWBSOJW7FC52","4","45","37","""short""","""3-4""","""4-5""","""left""","""complex""","""lopus""",0.491521184697655,0.60023659050397,7.4576421040624,7.45011405562092,0.818879076140567,1.00101046083124
"6","A05062513MWBSOJW7FC52","5","44","46","""short""","""4-4""","""4-4""","""right""","""complex""","""vatrus""",0.614648336563144,0.599862745098039,7.4808403912451,7.44415965744716,1.02464829093977,1.00492745124848
"7","A05062513MWBSOJW7FC52","6","43","22","""short""","""2-4""","""4-3""","""right""","""complex""","""wugnum""",0.400489205783323,0.59194499618029,7.22323860108545,7.51389426853832,0.676564897697598,0.961317572876972
"8","A05062513MWBSOJW7FC52","7","31","25","""long""","""2-3""","""2-5""","""left""","""simple""","""gaburatum""",0.365537163309983,0.589474738918958,7.28993416391881,7.26311607655564,0.620106578240052,1.00369236662068
"9","A108N19YFY7BID","0","17","14","""short""","""1-1""","""1-7""","""left""","""complex""","""wugnum""",0.205391265597148,0.226620320855615,7.106017880143,7.21094692940482,0.906323249484796,0.985448644915976
"10","A108N19YFY7BID","1","21","15","""long""","""1-2""","""2-1""","""right""","""complex""","""kibagronan""",0.171708853238265,0.396717626087868,7.13330511343712,7.25000948926994,0.432823857441196,0.983902865781687
"11","A108N19YFY7BID","2","38","16","""short""","""1-3""","""3-8""","""left""","""complex""","""bugorn""",0.0961516339869281,0.592708884510742,7.07781498740677,7.37820860586072,0.162224047082232,0.959286374986018
"12","A108N19YFY7BID","3","43","21","""long""","""2-4""","""4-3""","""right""","""complex""","""binivatrus""",0.396717626087868,0.59194499618029,7.25000948926994,7.51389426853832,0.670193394061631,0.964880424206486
"13","A108N19YFY7BID","4","52","18","""short""","""1-5""","""5-2""","""left""","""complex""","""lopus""",0.213287175157144,0.732388591800357,7.15638039732531,7.40911860957558,0.291221323686708,0.965888221586353
"14","A108N19YFY7BID","5","54","47","""long""","""4-5""","""5-4""","""left""","""complex""","""gaburatum""",0.596326967150497,0.614266488413547,7.40403330391097,7.52245949482209,0.970795214127044,0.984256985233003
"15","A108N19YFY7BID","6","46","33","""short""","""3-4""","""3-3""","""left""","""simple""","""ralex""",0.437312451087946,0.614648336563144,7.35231805220081,7.4808403912451,0.711483990232877,0.982819799337692
"16","A108N19YFY7BID","7","45","12","""long""","""1-4""","""4-5""","""right""","""complex""","""mipatorun""",0.067770971422087,0.60023659050397,7.12566153316537,7.45011405562092,0.112907097791531,0.95644999257283
"17","A10EEFN0OZB72L","0","57","58","""long""","""5-5""","""5-7""","""left""","""complex""","""tupabugorn""",0.627812012463534,0.657452317290553,7.5809576218774,7.53194766740618,0.954916418959217,1.00650694304254
"18","A10EEFN0OZB72L","1","28","22","""short""","""2-2""","""2-2""","""right""","""simple""","""ratum""",0.400489205783323,0.388259920156472,7.22323860108545,7.14928546016887,1.03149767717956,1.01034413037899
"19","A10EEFN0OZB72L","2","54","46","""short""","""4-5""","""5-4""","""left""","""complex""","""gronan""",0.614648336563144,0.614266488413547,7.4808403912451,7.52245949482209,1.0006216327226,0.994467354246887
"20","A10EEFN0OZB72L","3","32","37","""short""","""3-3""","""3-2""","""left""","""complex""","""torun""",0.491521184697655,0.500260812458955,7.4576421040624,7.34357497749828,0.982529857339131,1.01553291508749
"21","A10EEFN0OZB72L","4","45","31","""long""","""3-4""","""3-1""","""right""","""simple""","""fepolopus""",0.589474738918958,0.60023659050397,7.26311607655564,7.45011405562092,0.982070650548018,0.974899984393636
"22","A10EEFN0OZB72L","5","56","14","""short""","""1-5""","""5-6""","""right""","""complex""","""vatrus""",0.205391265597148,0.598802900536869,7.106017880143,7.46635694988485,0.343003124088077,0.951738301267875
"23","A10EEFN0OZB72L","6","43","45","""long""","""4-4""","""4-3""","""left""","""complex""","""tiburalex""",0.60023659050397,0.59194499618029,7.45011405562092,7.51389426853832,1.01400737294374,0.991511696779597
"24","A10EEFN0OZB72L","7","11","13","""long""","""1-1""","""1-3""","""left""","""simple""","""pakuwugnum""",0.240463209407226,0.198905525846702,7.12022004272548,7.04719236357878,1.20893176991248,1.01036266294136
"25","A10HW8RXNLY16Z","0","18","15","""long""","""1-1""","""1-5""","""right""","""simple""","""kibagronan""",0.171708853238265,0.213287175157144,7.13330511343712,7.15638039732531,0.805059437407593,0.996775564935479
"26","A10HW8RXNLY16Z","1","53","28","""short""","""2-5""","""2-8""","""left""","""simple""","""wugnum""",0.388259920156472,0.650860276977924,7.14928546016887,7.49631198228932,0.596533440263464,0.953707033146389
"27","A10HW8RXNLY16Z","2","54","13","""long""","""1-5""","""1-3""","""right""","""simple""","""tupabugorn""",0.240463209407226,0.614266488413547,7.12022004272548,7.52245949482209,0.391463988257385,0.946528199670137
"28","A10HW8RXNLY16Z","3","42","41","""long""","""4-4""","""4-2""","""left""","""complex""","""tiburalex""",0.559609180035651,0.601591200602591,7.47238209549203,7.38357413673939,0.93021503551766,1.01202777369171
"29","A10HW8RXNLY16Z","4","56","42","""short""","""4-5""","""5-6""","""right""","""complex""","""ratum""",0.601591200602591,0.598802900536869,7.38357413673939,7.46635694988485,1.00465645718019,0.98891255619024
"30","A10HW8RXNLY16Z","5","47","14","""short""","""1-4""","""4-7""","""left""","""complex""","""lopus""",0.205391265597148,0.596326967150497,7.106017880143,7.40403330391097,0.344427263751956,0.959749583566763
"31","A10HW8RXNLY16Z","6","41","36","""long""","""3-4""","""3-6""","""left""","""simple""","""binivatrus""",0.52237068011997,0.559609180035651,7.37717323948312,7.47238209549203,0.933456238310264,0.987258566974734
"32","A10HW8RXNLY16Z","7","25","17","""short""","""1-2""","""2-5""","""left""","""complex""","""torun""",0.226620320855615,0.365537163309983,7.21094692940482,7.28993416391881,0.619965200811706,0.989164890554851
"33","A10LQ8RUWDUI5U","0","58","33","""short""","""3-5""","""3-3""","""left""","""simple""","""ratum""",0.437312451087946,0.627812012463534,7.35231805220081,7.5809576218774,0.696565918469658,0.969840278619053
"34","A10LQ8RUWDUI5U","1","23","17","""short""","""1-2""","""1-7""","""left""","""simple""","""ralex""",0.226620320855615,0.393164349376114,7.21094692940482,7.2537688186413,0.57640099163422,0.994096601324482
"35","A10LQ8RUWDUI5U","2","44","36","""long""","""3-4""","""4-4""","""right""","""complex""","""fepolopus""",0.52237068011997,0.599862745098039,7.37717323948312,7.44415965744716,0.870817006704752,0.991001480214489
"36","A10LQ8RUWDUI5U","3","42","11","""long""","""1-4""","""4-2""","""left""","""complex""","""mipatorun""",0.198905525846702,0.601591200602591,7.04719236357878,7.38357413673939,0.330632372360942,0.954441877750393
"37","A10LQ8RUWDUI5U","4","51","52","""long""","""5-5""","""5-2""","""right""","""simple""","""kibagronan""",0.732388591800357,0.643812070282659,7.40911860957558,7.55152734409631,1.13758133096015,0.981141730933139
"38","A10LQ8RUWDUI5U","5","15","14","""short""","""1-1""","""1-5""","""left""","""complex""","""vatrus""",0.205391265597148,0.171708853238265,7.106017880143,7.13330511343712,1.19616002159274,0.996174671788156
"39","A10LQ8RUWDUI5U","6","36","38","""short""","""3-3""","""3-6""","""left""","""complex""","""bugorn""",0.592708884510742,0.52237068011997,7.37820860586072,7.37717323948312,1.13465189963307,1.00014034730431
"40","A10LQ8RUWDUI5U","7","27","25","""long""","""2-2""","""2-5""","""right""","""simple""","""pakuwugnum""",0.365537163309983,0.498480635229298,7.28993416391881,7.25324083665048,0.733302634999729,1.00505888720569
"41","A10NAX1WPXMFT2","0","57","18","""long""","""1-5""","""1-8""","""right""","""simple""","""binivatrus""",0.213287175157144,0.657452317290553,7.15638039732531,7.53194766740618,0.324414667874513,0.95013676585857
"42","A10NAX1WPXMFT2","1","43","37","""long""","""3-4""","""4-3""","""right""","""complex""","""fepolopus""",0.491521184697655,0.59194499618029,7.4576421040624,7.51389426853832,0.830349420755896,0.99251358051291
"43","A10NAX1WPXMFT2","2","36","35","""short""","""3-3""","""3-6""","""right""","""complex""","""bugorn""",0.545940690325717,0.52237068011997,7.38057144653556,7.37717323948312,1.04512123498266,1.00046063809838
"44","A10NAX1WPXMFT2","3","58","51","""short""","""5-5""","""5-1""","""right""","""simple""","""gronan""",0.643812070282659,0.627812012463534,7.55152734409631,7.5809576218774,1.02548542796488,0.996117868051899
"45","A10NAX1WPXMFT2","4","32","24","""short""","""2-3""","""2-4""","""left""","""simple""","""ralex""",0.409232560903149,0.500260812458955,7.29336768842468,7.34357497749828,0.818038412586485,0.993163099821621
"46","A10NAX1WPXMFT2","5","51","22","""short""","""2-5""","""2-2""","""left""","""simple""","""torun""",0.400489205783323,0.643812070282659,7.22323860108545,7.55152734409631,0.622059175758374,0.956526841782873
"47","A10NAX1WPXMFT2","6","54","46","""long""","""4-5""","""5-4""","""right""","""complex""","""gaburatum""",0.614648336563144,0.614266488413547,7.4808403912451,7.52245949482209,1.0006216327226,0.994467354246887
"48","A10NAX1WPXMFT2","7","25","13","""long""","""1-2""","""1-3""","""left""","""simple""","""pakuwugnum""",0.240463209407226,0.365537163309983,7.12022004272548,7.28993416391881,0.657835190353295,0.97671938904012
"49","A10VQSMGPJFSMU","0","46","38","""long""","""3-4""","""4-6""","""left""","""complex""","""tupabugorn""",0.592708884510742,0.614648336563144,7.37820860586072,7.4808403912451,0.964305683840164,0.986280714462978
"50","A10VQSMGPJFSMU","1","53","56","""short""","""5-5""","""5-6""","""right""","""simple""","""wugnum""",0.598802900536869,0.650860276977924,7.46635694988485,7.49631198228932,0.920017585521169,0.996004030718673
"51","A10VQSMGPJFSMU","2","41","13","""short""","""1-4""","""1-3""","""right""","""simple""","""gronan""",0.240463209407226,0.559609180035651,7.12022004272548,7.47238209549203,0.429698471693954,0.952871514295421
"52","A10VQSMGPJFSMU","3","55","24","""long""","""2-5""","""5-5""","""left""","""complex""","""fepolopus""",0.409232560903149,0.654049197860963,7.29336768842468,7.41937065134264,0.62569079243813,0.983017028149799
"53","A10VQSMGPJFSMU","4","32","21","""short""","""2-3""","""2-1""","""right""","""simple""","""ralex""",0.396717626087868,0.500260812458955,7.25000948926994,7.34357497749828,0.793021592352724,0.987258863902794
"54","A10VQSMGPJFSMU","5","47","42","""long""","""4-4""","""4-2""","""right""","""simple""","""binivatrus""",0.601591200602591,0.596326967150497,7.38357413673939,7.40403330391097,1.00882776352921,0.9972367537622
"55","A10VQSMGPJFSMU","6","34","35","""long""","""3-3""","""3-5""","""left""","""simple""","""mipatorun""",0.545940690325717,0.454706120023767,7.38057144653556,7.34365297144576,1.20064513382222,1.00502726303018
"56","A10VQSMGPJFSMU","7","38","17","""short""","""1-3""","""3-8""","""left""","""complex""","""ratum""",0.226620320855615,0.592708884510742,7.21094692940482,7.37820860586072,0.382346758717277,0.977330313441797
"57","A118DWOXWSI8VC","0","46","37","""long""","""3-4""","""3-7""","""right""","""simple""","""mipatorun""",0.491521184697655,0.614648336563144,7.4576421040624,7.4808403912451,0.799678703185037,0.996898973114057
"58","A118DWOXWSI8VC","1","44","21","""short""","""2-4""","""4-4""","""left""","""complex""","""bugorn""",0.396717626087868,0.599862745098039,7.25000948926994,7.44415965744716,0.661347332085159,0.973919128939827
"59","A118DWOXWSI8VC","2","57","38","""short""","""3-5""","""3-8""","""left""","""simple""","""wugnum""",0.592708884510742,0.657452317290553,7.37820860586072,7.53194766740618,0.901523759096892,0.979588405504893
"60","A118DWOXWSI8VC","3","58","26","""long""","""2-5""","""2-6""","""left""","""simple""","""gaburatum""",0.362726450020568,0.627812012463534,7.30024971724876,7.5809576218774,0.577762837950853,0.962971972852274
"61","A118DWOXWSI8VC","4","12","13","""short""","""1-1""","""1-3""","""right""","""simple""","""vatrus""",0.240463209407226,0.067770971422087,7.12022004272548,7.12566153316537,3.54817415718579,0.999236352945679
"62","A118DWOXWSI8VC","5","21","25","""long""","""2-2""","""2-5""","""left""","""simple""","""tiburalex""",0.365537163309983,0.396717626087868,7.28993416391881,7.25000948926994,0.921403888490251,1.00550684446799
"63","A118DWOXWSI8VC","6","43","44","""long""","""4-4""","""4-4""","""right""","""simple""","""kibagronan""",0.599862745098039,0.59194499618029,7.44415965744716,7.51389426853832,1.01337581864673,0.990719245094631
"64","A118DWOXWSI8VC","7","55","52","""short""","""5-5""","""5-5""","""left""","""complex""","""lopus""",0.732388591800357,0.654049197860963,7.40911860957558,7.41937065134264,1.11977599574405,0.998618206011152
"65","A11BOD44V4MHY5","0","12","17","""long""","""1-1""","""1-7""","""right""","""simple""","""mipatorun""",0.226620320855615,0.067770971422087,7.21094692940482,7.12566153316537,3.34391430579019,1.01196876891254
"66","A11BOD44V4MHY5","1","48","11","""short""","""1-4""","""4-8""","""left""","""complex""","""ratum""",0.198905525846702,0.59644761338879,7.04719236357878,7.48492849833601,0.333483647820461,0.941517659807366
"67","A11BOD44V4MHY5","2","55","22","""short""","""2-5""","""5-5""","""left""","""complex""","""wugnum""",0.400489205783323,0.654049197860963,7.22323860108545,7.41937065134264,0.61232275353766,0.97356486695786
"68","A11BOD44V4MHY5","3","33","34","""long""","""3-3""","""3-4""","""left""","""simple""","""kibagronan""",0.454706120023767,0.437312451087946,7.34365297144576,7.35231805220081,1.03977400801772,0.998821449141138
"69","A11BOD44V4MHY5","4","57","15","""long""","""1-5""","""1-5""","""right""","""simple""","""binivatrus""",0.171708853238265,0.657452317290553,7.13330511343712,7.53194766740618,0.261173090005827,0.947073111554645
"70","A11BOD44V4MHY5","5","46","48","""long""","""4-4""","""4-8""","""right""","""simple""","""tupabugorn""",0.59644761338879,0.614648336563144,7.48492849833601,7.4808403912451,0.970388395946657,1.00054647698348
"71","A11BOD44V4MHY5","6","54","53","""short""","""5-5""","""5-3""","""right""","""simple""","""lopus""",0.650860276977924,0.614266488413547,7.49631198228932,7.52245949482209,1.05957314822576,0.996524074001227
"72","A11BOD44V4MHY5","7","51","46","""short""","""4-5""","""5-1""","""left""","""complex""","""ralex""",0.614648336563144,0.643812070282659,7.4808403912451,7.55152734409631,0.954701480345482,0.99063938331542
"73","A11RFL94NJ2M4O","0","55","32","""short""","""3-5""","""3-2""","""right""","""simple""","""wugnum""",0.500260812458955,0.654049197860963,7.34357497749828,7.41937065134264,0.764867251722094,0.989784083124268
"74","A11RFL94NJ2M4O","1","51","24","""long""","""2-5""","""2-4""","""left""","""simple""","""mipatorun""",0.409232560903149,0.643812070282659,7.29336768842468,7.55152734409631,0.635639777184481,0.96581358394028
"75","A11RFL94NJ2M4O","2","43","31","""long""","""3-4""","""3-1""","""left""","""simple""","""binivatrus""",0.589474738918958,0.59194499618029,7.26311607655564,7.51389426853832,0.995826880407348,0.966624737716536
"76","A11RFL94NJ2M4O","3","44","27","""short""","""2-4""","""4-4""","""left""","""complex""","""gronan""",0.498480635229298,0.599862745098039,7.25324083665048,7.44415965744716,0.830991154731285,0.974353207133906
"77","A11RFL94NJ2M4O","4","18","13","""short""","""1-1""","""1-8""","""right""","""complex""","""ralex""",0.240463209407226,0.213287175157144,7.12022004272548,7.15638039732531,1.12741522892813,0.994947116755651
"78","A11RFL94NJ2M4O","5","56","15","""long""","""1-5""","""1-5""","""right""","""simple""","""tupabugorn""",0.171708853238265,0.598802900536869,7.13330511343712,7.46635694988485,0.286753542917571,0.955392993037539
"79","A11RFL94NJ2M4O","6","27","28","""long""","""2-2""","""2-8""","""left""","""simple""","""gaburatum""",0.388259920156472,0.498480635229298,7.14928546016887,7.25324083665048,0.778886666235038,0.985667734076011
"80","A11RFL94NJ2M4O","7","42","16","""short""","""1-4""","""4-2""","""right""","""complex""","""lopus""",0.0961516339869281,0.601591200602591,7.07781498740677,7.38357413673939,0.159828857022205,0.958589276186554
"81","A11YOOX5ZN0Z9C","0","23","22","""short""","""2-2""","""2-3""","""left""","""complex""","""ratum""",0.400489205783323,0.393164349376114,7.22323860108545,7.2537688186413,1.01863052033795,0.99579112343953
"82","A11YOOX5ZN0Z9C","1","47","16","""long""","""1-4""","""4-7""","""left""","""complex""","""fepolopus""",0.0961516339869281,0.596326967150497,7.07781498740677,7.40403330391097,0.16123978837714,0.955940457975535
"83","A11YOOX5ZN0Z9C","2","34","18","""long""","""1-3""","""1-8""","""left""","""simple""","""tiburalex""",0.213287175157144,0.454706120023767,7.15638039732531,7.34365297144576,0.469065987381027,0.974498716803664
"84","A11YOOX5ZN0Z9C","3","51","25","""short""","""2-5""","""2-5""","""right""","""simple""","""torun""",0.365537163309983,0.643812070282659,7.28993416391881,7.55152734409631,0.567769975405242,0.965358904462948
"85","A11YOOX5ZN0Z9C","4","45","43","""short""","""4-4""","""4-3""","""left""","""simple""","""gronan""",0.59194499618029,0.60023659050397,7.51389426853832,7.45011405562092,0.986186123180664,1.00856097134101
"86","A11YOOX5ZN0Z9C","5","56","11","""long""","""1-5""","""5-6""","""left""","""complex""","""pakuwugnum""",0.198905525846702,0.598802900536869,7.04719236357878,7.46635694988485,0.332171947845225,0.943859557061154
"87","A11YOOX5ZN0Z9C","6","58","57","""long""","""5-5""","""5-7""","""right""","""simple""","""binivatrus""",0.657452317290553,0.627812012463534,7.53194766740618,7.5809576218774,1.04721207023534,0.993535123540358
"88","A11YOOX5ZN0Z9C","7","42","24","""short""","""2-4""","""2-4""","""left""","""simple""","""bugorn""",0.409232560903149,0.601591200602591,7.29336768842468,7.38357413673939,0.680250243842058,0.987782820806815
"89","A123F7829DTAYZ","0","51","48","""short""","""4-5""","""5-1""","""right""","""complex""","""lopus""",0.59644761338879,0.643812070282659,7.48492849833601,7.55152734409631,0.926431238120351,0.991180744937332
"90","A123F7829DTAYZ","1","54","57","""short""","""5-5""","""5-4""","""right""","""complex""","""torun""",0.657452317290553,0.614266488413547,7.53194766740618,7.52245949482209,1.07030471251743,1.00126131255218
"91","A123F7829DTAYZ","2","48","45","""short""","""4-4""","""4-5""","""left""","""simple""","""ratum""",0.60023659050397,0.59644761338879,7.45011405562092,7.48492849833601,1.00635257318518,0.995348727416324
"92","A123F7829DTAYZ","3","47","31","""long""","""3-4""","""4-7""","""right""","""complex""","""kibagronan""",0.589474738918958,0.596326967150497,7.26311607655564,7.40403330391097,0.988509276606621,0.980967504929929
"93","A123F7829DTAYZ","4","32","36","""long""","""3-3""","""3-6""","""left""","""simple""","""binivatrus""",0.52237068011997,0.500260812458955,7.37717323948312,7.34357497749828,1.04419668123181,1.0045751915229
"94","A123F7829DTAYZ","5","33","24","""long""","""2-3""","""2-4""","""right""","""simple""","""tupabugorn""",0.409232560903149,0.437312451087946,7.29336768842468,7.35231805220081,0.935789868056718,0.991982071047854
"95","A123F7829DTAYZ","6","56","22","""long""","""2-5""","""2-2""","""right""","""simple""","""pakuwugnum""",0.400489205783323,0.598802900536869,7.22323860108545,7.46635694988485,0.668816409246275,0.967438156194347
"96","A123F7829DTAYZ","7","55","13","""short""","""1-5""","""1-3""","""left""","""simple""","""ralex""",0.240463209407226,0.654049197860963,7.12022004272548,7.41937065134264,0.367653091225629,0.959679786510865
"97","A127IRK7LVV5NU","0","58","52","""long""","""5-5""","""5-2""","""right""","""simple""","""pakuwugnum""",0.732388591800357,0.627812012463534,7.40911860957558,7.5809576218774,1.16657307802453,0.977332809273868
"98","A127IRK7LVV5NU","1","54","27","""short""","""2-5""","""2-7""","""right""","""simple""","""lopus""",0.498480635229298,0.614266488413547,7.25324083665048,7.52245949482209,0.811505502305218,0.964211351572325
"99","A127IRK7LVV5NU","2","52","43","""short""","""4-5""","""4-3""","""left""","""simple""","""ralex""",0.59194499618029,0.732388591800357,7.51389426853832,7.40911860957558,0.808238963314777,1.01414144711185
"100","A127IRK7LVV5NU","3","36","25","""short""","""2-3""","""3-6""","""right""","""complex""","""ratum""",0.365537163309983,0.52237068011997,7.28993416391881,7.37717323948312,0.699765850614035,0.988174457514783
"101","A127IRK7LVV5NU","4","53","34","""long""","""3-5""","""5-3""","""right""","""complex""","""kibagronan""",0.454706120023767,0.650860276977924,7.34365297144576,7.49631198228932,0.698623246966399,0.979635451245328
"102","A127IRK7LVV5NU","5","47","38","""long""","""3-4""","""3-8""","""left""","""simple""","""binivatrus""",0.592708884510742,0.596326967150497,7.37820860586072,7.40403330391097,0.993932720069589,0.996512077000436
"103","A127IRK7LVV5NU","6","31","16","""long""","""1-3""","""3-1""","""left""","""complex""","""tupabugorn""",0.0961516339869281,0.589474738918958,7.07781498740677,7.26311607655564,0.163114087235123,0.974487384313326
"104","A127IRK7LVV5NU","7","25","11","""short""","""1-2""","""1-1""","""right""","""simple""","""torun""",0.198905525846702,0.365537163309983,7.04719236357878,7.28993416391881,0.544145837445333,0.966701784284765
"105","A12QUZGOA8ZLFY","0","51","46","""long""","""4-5""","""5-1""","""left""","""complex""","""pakuwugnum""",0.614648336563144,0.643812070282659,7.4808403912451,7.55152734409631,0.954701480345482,0.99063938331542
"106","A12QUZGOA8ZLFY","1","34","31","""long""","""3-3""","""3-4""","""right""","""complex""","""mipatorun""",0.589474738918958,0.454706120023767,7.26311607655564,7.34365297144576,1.29638619970223,0.989033128988629
"107","A12QUZGOA8ZLFY","2","15","12","""long""","""1-1""","""1-5""","""right""","""complex""","""fepolopus""",0.067770971422087,0.171708853238265,7.12566153316537,7.13330511343712,0.394685365046654,0.998928465816308
"108","A12QUZGOA8ZLFY","3","38","23","""long""","""2-3""","""3-8""","""right""","""complex""","""tiburalex""",0.393164349376114,0.592708884510742,7.2537688186413,7.37820860586072,0.663334665044975,0.983134146258677
"109","A12QUZGOA8ZLFY","4","43","28","""short""","""2-4""","""2-8""","""right""","""simple""","""bugorn""",0.388259920156472,0.59194499618029,7.14928546016887,7.51389426853832,0.65590540111301,0.951475387417133
"110","A12QUZGOA8ZLFY","5","36","17","""short""","""1-3""","""3-6""","""right""","""complex""","""vatrus""",0.226620320855615,0.52237068011997,7.21094692940482,7.37717323948312,0.433830476097105,0.97746747911671
"111","A12QUZGOA8ZLFY","6","52","54","""short""","""5-5""","""5-2""","""left""","""complex""","""gronan""",0.614266488413547,0.732388591800357,7.52245949482209,7.40911860957558,0.838716625696692,1.01529748560106
"112","A12QUZGOA8ZLFY","7","47","35","""short""","""3-4""","""3-5""","""right""","""simple""","""ratum""",0.545940690325717,0.596326967150497,7.38057144653556,7.40403330391097,0.915505620908699,0.996831205856001
"113","A12TIM3OYMOVWT","0","53","22","""short""","""2-5""","""5-3""","""left""","""complex""","""bugorn""",0.400489205783323,0.650860276977924,7.22323860108545,7.49631198228932,0.615322857991696,0.963572303040611
"114","A12TIM3OYMOVWT","1","41","25","""short""","""2-4""","""4-1""","""left""","""complex""","""lopus""",0.365537163309983,0.559609180035651,7.28993416391881,7.47238209549203,0.65320079861216,0.97558369884708
"115","A12TIM3OYMOVWT","2","22","28","""long""","""2-2""","""2-2""","""left""","""complex""","""binivatrus""",0.388259920156472,0.400489205783323,7.14928546016887,7.22323860108545,0.96946413174125,0.989761775153673
"116","A12TIM3OYMOVWT","3","26","17","""long""","""1-2""","""2-6""","""right""","""complex""","""gaburatum""",0.226620320855615,0.362726450020568,7.21094692940482,7.30024971724876,0.624769218905224,0.987767159850308
"117","A12TIM3OYMOVWT","4","48","41","""short""","""4-4""","""4-8""","""left""","""complex""","""gronan""",0.559609180035651,0.59644761338879,7.47238209549203,7.48492849833601,0.93823693392981,0.998323777862839
"118","A12TIM3OYMOVWT","5","57","44","""long""","""4-5""","""5-7""","""right""","""complex""","""mipatorun""",0.599862745098039,0.657452317290553,7.44415965744716,7.53194766740618,0.912404944544346,0.98834458046769
"119","A12TIM3OYMOVWT","6","54","13","""long""","""1-5""","""5-4""","""left""","""complex""","""tiburalex""",0.240463209407226,0.614266488413547,7.12022004272548,7.52245949482209,0.391463988257385,0.946528199670137
"120","A12TIM3OYMOVWT","7","35","26","""short""","""2-3""","""3-5""","""right""","""complex""","""wugnum""",0.362726450020568,0.545940690325717,7.30024971724876,7.38057144653556,0.664406329200631,0.989117139523864
"121","A130HSJ20IT84","0","52","11","""short""","""1-5""","""5-2""","""left""","""complex""","""lopus""",0.198905525846702,0.732388591800357,7.04719236357878,7.40911860957558,0.271584686153771,0.951151241454139
"122","A130HSJ20IT84","1","33","34","""long""","""3-3""","""3-3""","""left""","""complex""","""gaburatum""",0.454706120023767,0.437312451087946,7.34365297144576,7.35231805220081,1.03977400801772,0.998821449141138
"123","A130HSJ20IT84","2","47","26","""short""","""2-4""","""4-7""","""left""","""complex""","""torun""",0.362726450020568,0.596326967150497,7.30024971724876,7.40403330391097,0.608267728950493,0.985982830924411
"124","A130HSJ20IT84","3","25","22","""long""","""2-2""","""2-2""","""right""","""simple""","""tupabugorn""",0.400489205783323,0.365537163309983,7.22323860108545,7.28993416391881,1.09561830090502,0.990851006149896
"125","A130HSJ20IT84","4","31","25","""long""","""2-3""","""3-1""","""left""","""complex""","""kibagronan""",0.365537163309983,0.589474738918958,7.28993416391881,7.26311607655564,0.620106578240052,1.00369236662068
"126","A130HSJ20IT84","5","56","23","""short""","""2-5""","""2-3""","""left""","""simple""","""ralex""",0.393164349376114,0.598802900536869,7.2537688186413,7.46635694988485,0.656583909369201,0.971527194230001
"127","A130HSJ20IT84","6","14","18","""long""","""1-1""","""1-8""","""left""","""simple""","""pakuwugnum""",0.213287175157144,0.205391265597148,7.15638039732531,7.106017880143,1.03844325870937,1.00708730515906
"128","A130HSJ20IT84","7","48","17","""short""","""1-4""","""1-7""","""left""","""simple""","""vatrus""",0.226620320855615,0.59644761338879,7.21094692940482,7.48492849833601,0.379950084078707,0.963395566304728
"129","A13P63YBJ86VGU","0","43","45","""long""","""4-4""","""4-5""","""left""","""simple""","""mipatorun""",0.60023659050397,0.59194499618029,7.45011405562092,7.51389426853832,1.01400737294374,0.991511696779597
"130","A13P63YBJ86VGU","1","42","17","""short""","""1-4""","""1-7""","""right""","""simple""","""gronan""",0.226620320855615,0.601591200602591,7.21094692940482,7.38357413673939,0.376701521944832,0.976620102387053
"131","A13P63YBJ86VGU","2","37","34","""short""","""3-3""","""3-7""","""left""","""complex""","""ralex""",0.454706120023767,0.491521184697655,7.34365297144576,7.4576421040624,0.925099739705963,0.984715124294508
"132","A13P63YBJ86VGU","3","48","23","""short""","""2-4""","""2-3""","""right""","""simple""","""wugnum""",0.393164349376114,0.59644761338879,7.2537688186413,7.48492849833601,0.659176666232769,0.969116648242385
"133","A13P63YBJ86VGU","4","25","11","""short""","""1-2""","""2-5""","""left""","""complex""","""lopus""",0.198905525846702,0.365537163309983,7.04719236357878,7.28993416391881,0.544145837445333,0.966701784284765
"134","A13P63YBJ86VGU","5","41","32","""long""","""3-4""","""4-1""","""left""","""complex""","""tupabugorn""",0.500260812458955,0.559609180035651,7.34357497749828,7.47238209549203,0.893946758391428,0.982762241498403
"135","A13P63YBJ86VGU","6","54","56","""long""","""5-5""","""5-4""","""left""","""complex""","""gaburatum""",0.598802900536869,0.614266488413547,7.46635694988485,7.52245949482209,0.974825929513727,0.992541994413415
"136","A13P63YBJ86VGU","7","56","48","""long""","""4-5""","""4-8""","""right""","""simple""","""binivatrus""",0.59644761338879,0.598802900536869,7.48492849833601,7.46635694988485,0.996066673782029,1.00248736412896
"137","A13P7QQDWVU76V","0","44","17","""long""","""1-4""","""4-4""","""left""","""complex""","""gaburatum""",0.226620320855615,0.599862745098039,7.21094692940482,7.44415965744716,0.377786956612178,0.968671718666185
"138","A13P7QQDWVU76V","1","56","33","""long""","""3-5""","""3-3""","""left""","""simple""","""pakuwugnum""",0.437312451087946,0.598802900536869,7.35231805220081,7.46635694988485,0.730311177009772,0.984726299793931
"139","A13P7QQDWVU76V","2","51","56","""short""","""5-5""","""5-1""","""right""","""complex""","""vatrus""",0.598802900536869,0.643812070282659,7.46635694988485,7.55152734409631,0.930089583865632,0.988721434707107
"140","A13P7QQDWVU76V","3","12","15","""long""","""1-1""","""1-5""","""left""","""simple""","""tiburalex""",0.171708853238265,0.067770971422087,7.13330511343712,7.12566153316537,2.53366374474461,1.00107268360084
"141","A13P7QQDWVU76V","4","27","21","""long""","""2-2""","""2-7""","""right""","""complex""","""fepolopus""",0.396717626087868,0.498480635229298,7.25000948926994,7.25324083665048,0.795853636130479,0.999554496058615
"142","A13P7QQDWVU76V","5","43","22","""short""","""2-4""","""2-2""","""left""","""simple""","""gronan""",0.400489205783323,0.59194499618029,7.22323860108545,7.51389426853832,0.676564897697598,0.961317572876972
"143","A13P7QQDWVU76V","6","35","38","""short""","""3-3""","""3-8""","""left""","""simple""","""bugorn""",0.592708884510742,0.545940690325717,7.37820860586072,7.38057144653556,1.0856653387699,0.999679856676145
"144","A13P7QQDWVU76V","7","48","34","""short""","""3-4""","""3-4""","""left""","""simple""","""torun""",0.454706120023767,0.59644761338879,7.34365297144576,7.48492849833601,0.7623571790996,0.98112533380624
"145","A13RWQI5Q3JPE","0","31","35","""short""","""3-3""","""3-1""","""right""","""complex""","""torun""",0.545940690325717,0.589474738918958,7.38057144653556,7.26311607655564,0.926147728275722,1.01617148462752
"146","A13RWQI5Q3JPE","1","16","14","""long""","""1-1""","""1-6""","""left""","""complex""","""binivatrus""",0.205391265597148,0.0961516339869281,7.106017880143,7.07781498740677,2.13611830689296,1.00398468917122
"147","A13RWQI5Q3JPE","2","58","17","""short""","""1-5""","""5-8""","""right""","""complex""","""bugorn""",0.226620320855615,0.627812012463534,7.21094692940482,7.5809576218774,0.36096843697902,0.951192090639738
"148","A13RWQI5Q3JPE","3","32","23","""short""","""2-3""","""3-2""","""left""","""complex""","""wugnum""",0.393164349376114,0.500260812458955,7.2537688186413,7.34357497749828,0.78591874395193,0.987770784783684
"149","A13RWQI5Q3JPE","4","53","36","""long""","""3-5""","""5-3""","""left""","""complex""","""gaburatum""",0.52237068011997,0.650860276977924,7.37717323948312,7.49631198228932,0.802584976525903,0.984107019146525
"150","A13RWQI5Q3JPE","5","45","18","""short""","""1-4""","""4-5""","""right""","""complex""","""gronan""",0.213287175157144,0.60023659050397,7.15638039732531,7.45011405562092,0.355338509067006,0.96057326691878
"151","A13RWQI5Q3JPE","6","54","41","""long""","""4-5""","""4-1""","""left""","""simple""","""tiburalex""",0.559609180035651,0.614266488413547,7.47238209549203,7.52245949482209,0.911020201477931,0.993342948624113
"152","A13RWQI5Q3JPE","7","57","52","""long""","""5-5""","""5-2""","""right""","""simple""","""fepolopus""",0.732388591800357,0.657452317290553,7.40911860957558,7.53194766740618,1.11397978612141,0.983692258197421
"153","A13SP2A3XH52YX","0","44","37","""long""","""3-4""","""3-7""","""right""","""simple""","""binivatrus""",0.491521184697655,0.599862745098039,7.4576421040624,7.44415965744716,0.819389416519479,1.00181114420373
"154","A13SP2A3XH52YX","1","42","46","""long""","""4-4""","""4-2""","""left""","""complex""","""mipatorun""",0.614648336563144,0.601591200602591,7.4808403912451,7.38357413673939,1.02170433335374,1.01317332943428
"155","A13SP2A3XH52YX","2","58","32","""short""","""3-5""","""3-2""","""left""","""simple""","""wugnum""",0.500260812458955,0.627812012463534,7.34357497749828,7.5809576218774,0.796832176714701,0.968686984386501
"156","A13SP2A3XH52YX","3","31","15","""long""","""1-3""","""3-1""","""right""","""complex""","""fepolopus""",0.171708853238265,0.589474738918958,7.13330511343712,7.26311607655564,0.291291283411335,0.982127373189376
"157","A13SP2A3XH52YX","4","36","21","""short""","""2-3""","""3-6""","""left""","""complex""","""gronan""",0.396717626087868,0.52237068011997,7.25000948926994,7.37717323948312,0.759456150940087,0.982762537074148
"158","A13SP2A3XH52YX","5","55","48","""short""","""4-5""","""4-8""","""left""","""simple""","""ratum""",0.59644761338879,0.654049197860963,7.48492849833601,7.41937065134264,0.91193080786498,1.00883603880627
"159","A13SP2A3XH52YX","6","23","24","""short""","""2-2""","""2-4""","""right""","""simple""","""bugorn""",0.409232560903149,0.393164349376114,7.29336768842468,7.2537688186413,1.04086894336308,1.00545907524398
"160","A13SP2A3XH52YX","7","57","23","""long""","""2-5""","""5-7""","""left""","""complex""","""tiburalex""",0.393164349376114,0.657452317290553,7.2537688186413,7.53194766740618,0.598011960770624,0.963066810730952
"161","A13V5VK2KVLTBC","0","23","11","""short""","""1-2""","""2-3""","""left""","""complex""","""gronan""",0.198905525846702,0.393164349376114,7.04719236357878,7.2537688186413,0.505909363761826,0.97152150003297
"162","A13V5VK2KVLTBC","1","57","56","""long""","""5-5""","""5-6""","""right""","""simple""","""pakuwugnum""",0.598802900536869,0.657452317290553,7.46635694988485,7.53194766740618,0.910792896745142,0.991291665792479
"163","A13V5VK2KVLTBC","2","55","43","""long""","""4-5""","""5-5""","""left""","""complex""","""gaburatum""",0.59194499618029,0.654049197860963,7.51389426853832,7.41937065134264,0.905046589944943,1.01274011255639
"164","A13V5VK2KVLTBC","3","54","37","""short""","""3-5""","""3-7""","""left""","""simple""","""vatrus""",0.491521184697655,0.614266488413547,7.4576421040624,7.52245949482209,0.800175809634506,0.991383484244175
"165","A13V5VK2KVLTBC","4","31","12","""long""","""1-3""","""3-1""","""right""","""complex""","""fepolopus""",0.067770971422087,0.589474738918958,7.12566153316537,7.26311607655564,0.114968406528111,0.981074990136265
"166","A13V5VK2KVLTBC","5","46","38","""short""","""3-4""","""4-6""","""left""","""complex""","""bugorn""",0.592708884510742,0.614648336563144,7.37820860586072,7.4808403912451,0.964305683840164,0.986280714462978
"167","A13V5VK2KVLTBC","6","42","44","""long""","""4-4""","""4-4""","""left""","""simple""","""tiburalex""",0.599862745098039,0.601591200602591,7.44415965744716,7.38357413673939,0.997126860394865,1.00820544624944
"168","A13V5VK2KVLTBC","7","28","25","""short""","""2-2""","""2-5""","""left""","""simple""","""torun""",0.365537163309983,0.388259920156472,7.28993416391881,7.14928546016887,0.941475399167312,1.01967311342281
"169","A149MN8UN8O976","0","25","17","""short""","""1-2""","""1-7""","""left""","""simple""","""wugnum""",0.226620320855615,0.365537163309983,7.21094692940482,7.28993416391881,0.619965200811706,0.989164890554851
"170","A149MN8UN8O976","1","52","15","""long""","""1-5""","""5-2""","""left""","""complex""","""kibagronan""",0.171708853238265,0.732388591800357,7.13330511343712,7.40911860957558,0.234450475008316,0.962773777736262
"171","A149MN8UN8O976","2","38","13","""short""","""1-3""","""3-8""","""right""","""complex""","""vatrus""",0.240463209407226,0.592708884510742,7.12022004272548,7.37820860586072,0.405702049844788,0.965033712528769
"172","A149MN8UN8O976","3","57","26","""short""","""2-5""","""5-7""","""right""","""complex""","""bugorn""",0.362726450020568,0.657452317290553,7.30024971724876,7.53194766740618,0.551715220223744,0.969237976631188
"173","A149MN8UN8O976","4","11","14","""long""","""1-1""","""1-1""","""left""","""complex""","""fepolopus""",0.205391265597148,0.198905525846702,7.106017880143,7.04719236357878,1.03260713709605,1.00834736921164
"174","A149MN8UN8O976","5","54","41","""long""","""4-5""","""4-1""","""right""","""simple""","""tiburalex""",0.559609180035651,0.614266488413547,7.47238209549203,7.52245949482209,0.911020201477931,0.993342948624113
"175","A149MN8UN8O976","6","46","32","""short""","""3-4""","""4-6""","""left""","""complex""","""ratum""",0.500260812458955,0.614648336563144,7.34357497749828,7.4808403912451,0.813897610552733,0.98165107039211
"176","A149MN8UN8O976","7","33","28","""long""","""2-3""","""3-3""","""left""","""complex""","""mipatorun""",0.388259920156472,0.437312451087946,7.14928546016887,7.35231805220081,0.887831844692642,0.972385227272484
"177","A14B001HRNXE7O","0","56","14","""long""","""1-5""","""5-6""","""left""","""complex""","""gaburatum""",0.205391265597148,0.598802900536869,7.106017880143,7.46635694988485,0.343003124088077,0.951738301267875
"178","A14B001HRNXE7O","1","52","27","""short""","""2-5""","""2-7""","""right""","""simple""","""wugnum""",0.498480635229298,0.732388591800357,7.25324083665048,7.40911860957558,0.680623156627731,0.978961360839379
"179","A14B001HRNXE7O","2","45","41","""long""","""4-4""","""4-1""","""right""","""simple""","""binivatrus""",0.559609180035651,0.60023659050397,7.47238209549203,7.45011405562092,0.932314338860602,1.00298895288111
"180","A14B001HRNXE7O","3","21","26","""short""","""2-2""","""2-6""","""right""","""simple""","""gronan""",0.362726450020568,0.396717626087868,7.30024971724876,7.25000948926994,0.914318966861908,1.00692967754776
"181","A14B001HRNXE7O","4","27","13","""long""","""1-2""","""2-7""","""left""","""complex""","""fepolopus""",0.240463209407226,0.498480635229298,7.12022004272548,7.25324083665048,0.482392278481619,0.981660502260886
"182","A14B001HRNXE7O","5","18","12","""long""","""1-1""","""1-2""","""left""","""simple""","""tiburalex""",0.067770971422087,0.213287175157144,7.12566153316537,7.15638039732531,0.31774517793747,0.995707485844182
"183","A14B001HRNXE7O","6","53","48","""short""","""4-5""","""5-3""","""right""","""complex""","""torun""",0.59644761338879,0.650860276977924,7.48492849833601,7.49631198228932,0.916398856231044,0.998481455416983
"184","A14B001HRNXE7O","7","34","25","""short""","""2-3""","""3-4""","""right""","""complex""","""bugorn""",0.365537163309983,0.454706120023767,7.28993416391881,7.34365297144576,0.803897610374975,0.992685001900849
"185","A14BVED75ZFI4O","0","34","27","""long""","""2-3""","""2-7""","""left""","""simple""","""tupabugorn""",0.498480635229298,0.454706120023767,7.25324083665048,7.34365297144576,1.09626990550126,0.987688397702502
"186","A14BVED75ZFI4O","1","37","16","""long""","""1-3""","""3-7""","""left""","""complex""","""binivatrus""",0.0961516339869281,0.491521184697655,7.07781498740677,7.4576421040624,0.19562052863718,0.94906873897197
"187","A14BVED75ZFI4O","2","46","12","""short""","""1-4""","""4-6""","""left""","""complex""","""ralex""",0.067770971422087,0.614648336563144,7.12566153316537,7.4808403912451,0.110259749177935,0.952521529734093
"188","A14BVED75ZFI4O","3","41","25","""short""","""2-4""","""2-5""","""right""","""simple""","""ratum""",0.365537163309983,0.559609180035651,7.28993416391881,7.47238209549203,0.65320079861216,0.97558369884708
"189","A14BVED75ZFI4O","4","53","11","""short""","""1-5""","""5-3""","""left""","""complex""","""gronan""",0.198905525846702,0.650860276977924,7.04719236357878,7.49631198228932,0.305604033434427,0.940087923265251
"190","A14BVED75ZFI4O","5","48","43","""long""","""4-4""","""4-8""","""right""","""complex""","""mipatorun""",0.59194499618029,0.59644761338879,7.51389426853832,7.48492849833601,0.992450942702381,1.00386987934604
"191","A14BVED75ZFI4O","6","32","34","""long""","""3-3""","""3-4""","""left""","""simple""","""fepolopus""",0.454706120023767,0.500260812458955,7.34365297144576,7.34357497749828,0.908938115277767,1.00001062070554
"192","A14BVED75ZFI4O","7","15","18","""short""","""1-1""","""1-8""","""right""","""simple""","""wugnum""",0.213287175157144,0.171708853238265,7.15638039732531,7.13330511343712,1.24214431076064,1.00323486567885
"193","A14CUGHBDKYY8H","0","41","12","""long""","""1-4""","""4-1""","""left""","""complex""","""mipatorun""",0.067770971422087,0.559609180035651,7.12566153316537,7.47238209549203,0.121104109510444,0.953599727918647
"194","A14CUGHBDKYY8H","1","32","17","""short""","""1-3""","""1-7""","""left""","""simple""","""vatrus""",0.226620320855615,0.500260812458955,7.21094692940482,7.34357497749828,0.453004343357813,0.981939580041077
"195","A14CUGHBDKYY8H","2","55","28","""short""","""2-5""","""5-5""","""left""","""complex""","""lopus""",0.388259920156472,0.654049197860963,7.14928546016887,7.41937065134264,0.593624946603799,0.963597290947461
"196","A14CUGHBDKYY8H","3","38","36","""long""","""3-3""","""3-6""","""right""","""simple""","""gaburatum""",0.52237068011997,0.592708884510742,7.37717323948312,7.37820860586072,0.881327568678453,0.99985967239029
"197","A14CUGHBDKYY8H","4","24","23","""long""","""2-2""","""2-3""","""left""","""simple""","""tiburalex""",0.393164349376114,0.409232560903149,7.2537688186413,7.29336768842468,0.960735745240864,0.994570564453205
"198","A14CUGHBDKYY8H","5","57","55","""short""","""5-5""","""5-5""","""right""","""simple""","""gronan""",0.654049197860963,0.657452317290553,7.41937065134264,7.53194766740618,0.994823777572776,0.98505339906294
"199","A14CUGHBDKYY8H","6","26","11","""long""","""1-2""","""2-6""","""right""","""complex""","""pakuwugnum""",0.198905525846702,0.362726450020568,7.04719236357878,7.30024971724876,0.548362342573648,0.965335794873966
"200","A14CUGHBDKYY8H","7","13","14","""short""","""1-1""","""1-3""","""left""","""complex""","""bugorn""",0.205391265597148,0.240463209407226,7.106017880143,7.12022004272548,0.854148400096069,0.998005375887647
"201","A14Y2V9W05JTEM","0","51","43","""long""","""4-5""","""4-3""","""left""","""simple""","""gaburatum""",0.59194499618029,0.643812070282659,7.51389426853832,7.55152734409631,0.919437555621476,0.995016494830359
"202","A14Y2V9W05JTEM","1","14","16","""short""","""1-1""","""1-4""","""left""","""complex""","""ralex""",0.0961516339869281,0.205391265597148,7.07781498740677,7.106017880143,0.468138865142974,0.996031125559782
"203","A14Y2V9W05JTEM","2","37","38","""long""","""3-3""","""3-8""","""left""","""simple""","""fepolopus""",0.592708884510742,0.491521184697655,7.37820860586072,7.4576421040624,1.20586640609464,0.989348711416654
"204","A14Y2V9W05JTEM","3","46","12","""long""","""1-4""","""4-6""","""left""","""complex""","""tupabugorn""",0.067770971422087,0.614648336563144,7.12566153316537,7.4808403912451,0.110259749177935,0.952521529734093
"205","A14Y2V9W05JTEM","4","35","14","""short""","""1-3""","""3-5""","""left""","""complex""","""wugnum""",0.205391265597148,0.545940690325717,7.106017880143,7.38057144653556,0.376215345799941,0.962800500153489
"206","A14Y2V9W05JTEM","5","58","51","""long""","""5-5""","""5-1""","""left""","""simple""","""kibagronan""",0.643812070282659,0.627812012463534,7.55152734409631,7.5809576218774,1.02548542796488,0.996117868051899
"207","A14Y2V9W05JTEM","6","22","17","""short""","""1-2""","""1-7""","""left""","""simple""","""torun""",0.226620320855615,0.400489205783323,7.21094692940482,7.22323860108545,0.565858748708008,0.998298315705813
"208","A14Y2V9W05JTEM","7","43","45","""short""","""4-4""","""4-5""","""right""","""simple""","""vatrus""",0.60023659050397,0.59194499618029,7.45011405562092,7.51389426853832,1.01400737294374,0.991511696779597
"209","A15P9QOCMFRC73","0","56","17","""long""","""1-5""","""5-6""","""right""","""complex""","""tiburalex""",0.226620320855615,0.598802900536869,7.21094692940482,7.46635694988485,0.37845561645148,0.965791881878354
"210","A15P9QOCMFRC73","1","43","21","""short""","""2-4""","""2-1""","""left""","""simple""","""gronan""",0.396717626087868,0.59194499618029,7.25000948926994,7.51389426853832,0.670193394061631,0.964880424206486
"211","A15P9QOCMFRC73","2","22","18","""long""","""1-2""","""2-2""","""left""","""complex""","""mipatorun""",0.213287175157144,0.400489205783323,7.15638039732531,7.22323860108545,0.532566601239532,0.99074401283794
"212","A15P9QOCMFRC73","3","47","43","""long""","""4-4""","""4-7""","""right""","""complex""","""gaburatum""",0.59194499618029,0.596326967150497,7.51389426853832,7.40403330391097,0.992651730993911,1.01483798898761
"213","A15P9QOCMFRC73","4","41","16","""short""","""1-4""","""1-6""","""right""","""simple""","""vatrus""",0.0961516339869281,0.559609180035651,7.07781498740677,7.47238209549203,0.171819257827047,0.947196609723251
"214","A15P9QOCMFRC73","5","55","44","""short""","""4-5""","""4-4""","""right""","""simple""","""wugnum""",0.599862745098039,0.654049197860963,7.44415965744716,7.41937065134264,0.917152328998891,1.00334111978892
"215","A15P9QOCMFRC73","6","54","32","""long""","""3-5""","""5-4""","""right""","""complex""","""tupabugorn""",0.500260812458955,0.614266488413547,7.34357497749828,7.52245949482209,0.814403555940302,0.976219942766466
"216","A15P9QOCMFRC73","7","48","35","""short""","""3-4""","""3-5""","""left""","""simple""","""lopus""",0.545940690325717,0.59644761338879,7.38057144653556,7.48492849833601,0.915320437320368,0.986057708924855
"217","A15TTUSP9QMNX5","0","52","11","""short""","""1-5""","""1-1""","""right""","""simple""","""ratum""",0.198905525846702,0.732388591800357,7.04719236357878,7.40911860957558,0.271584686153771,0.951151241454139
"218","A15TTUSP9QMNX5","1","45","24","""short""","""2-4""","""4-5""","""left""","""complex""","""torun""",0.409232560903149,0.60023659050397,7.29336768842468,7.45011405562092,0.681785428241803,0.978960541271448
"219","A15TTUSP9QMNX5","2","28","27","""short""","""2-2""","""2-7""","""right""","""simple""","""lopus""",0.498480635229298,0.388259920156472,7.25324083665048,7.14928546016887,1.28388383490216,1.01454066662477
"220","A15TTUSP9QMNX5","3","37","13","""long""","""1-3""","""1-3""","""right""","""simple""","""kibagronan""",0.240463209407226,0.491521184697655,7.12022004272548,7.4576421040624,0.489222472791564,0.954754859963967
"221","A15TTUSP9QMNX5","4","14","12","""long""","""1-1""","""1-2""","""right""","""simple""","""binivatrus""",0.067770971422087,0.205391265597148,7.12566153316537,7.106017880143,0.329960338016575,1.00276436864552
"222","A15TTUSP9QMNX5","5","31","36","""long""","""3-3""","""3-1""","""left""","""complex""","""pakuwugnum""",0.52237068011997,0.589474738918958,7.37717323948312,7.26311607655564,0.886162961076075,1.01570361284678
"223","A15TTUSP9QMNX5","6","56","55","""short""","""5-5""","""5-6""","""right""","""complex""","""ralex""",0.654049197860963,0.598802900536869,7.41937065134264,7.46635694988485,1.09226123867229,0.993706931123493
"224","A15TTUSP9QMNX5","7","23","18","""long""","""1-2""","""1-8""","""right""","""simple""","""tupabugorn""",0.213287175157144,0.393164349376114,7.15638039732531,7.2537688186413,0.542488594135239,0.986574093584881
"225","A15ZPSJ3U87606","0","15","14","""short""","""1-1""","""1-5""","""left""","""complex""","""ratum""",0.205391265597148,0.171708853238265,7.106017880143,7.13330511343712,1.19616002159274,0.996174671788156
"226","A15ZPSJ3U87606","1","38","16","""short""","""1-3""","""1-6""","""right""","""simple""","""bugorn""",0.0961516339869281,0.592708884510742,7.07781498740677,7.37820860586072,0.162224047082232,0.959286374986018
"227","A15ZPSJ3U87606","2","22","27","""long""","""2-2""","""2-7""","""right""","""simple""","""fepolopus""",0.498480635229298,0.400489205783323,7.25324083665048,7.22323860108545,1.24467932726005,1.00415357116412
"228","A15ZPSJ3U87606","3","46","33","""short""","""3-4""","""3-3""","""left""","""simple""","""wugnum""",0.437312451087946,0.614648336563144,7.35231805220081,7.4808403912451,0.711483990232877,0.982819799337692
"229","A15ZPSJ3U87606","4","54","15","""short""","""1-5""","""5-4""","""right""","""complex""","""vatrus""",0.171708853238265,0.614266488413547,7.13330511343712,7.52245949482209,0.279534789015975,0.948267666758081
"230","A15ZPSJ3U87606","5","23","18","""long""","""1-2""","""1-8""","""left""","""simple""","""tiburalex""",0.213287175157144,0.393164349376114,7.15638039732531,7.2537688186413,0.542488594135239,0.986574093584881
"231","A15ZPSJ3U87606","6","41","42","""long""","""4-4""","""4-2""","""right""","""simple""","""kibagronan""",0.601591200602591,0.559609180035651,7.38357413673939,7.47238209549203,1.07502024996135,0.988115174302152
"232","A15ZPSJ3U87606","7","47","21","""long""","""2-4""","""4-7""","""right""","""complex""","""mipatorun""",0.396717626087868,0.596326967150497,7.25000948926994,7.40403330391097,0.665268632715963,0.979197309315225
"233","A165LYRHB4GMMA","0","35","18","""long""","""1-3""","""3-5""","""right""","""complex""","""tiburalex""",0.213287175157144,0.545940690325717,7.15638039732531,7.38057144653556,0.390678289668963,0.969624161105373
"234","A165LYRHB4GMMA","1","44","22","""long""","""2-4""","""2-2""","""left""","""simple""","""tupabugorn""",0.400489205783323,0.599862745098039,7.22323860108545,7.44415965744716,0.667634736539387,0.970322901908653
"235","A165LYRHB4GMMA","2","31","34","""short""","""3-3""","""3-1""","""right""","""complex""","""wugnum""",0.454706120023767,0.589474738918958,7.34365297144576,7.26311607655564,0.771375073438526,1.01108847690733
"236","A165LYRHB4GMMA","3","23","11","""short""","""1-2""","""2-3""","""right""","""complex""","""torun""",0.198905525846702,0.393164349376114,7.04719236357878,7.2537688186413,0.505909363761826,0.97152150003297
"237","A165LYRHB4GMMA","4","47","36","""long""","""3-4""","""3-6""","""left""","""simple""","""binivatrus""",0.52237068011997,0.596326967150497,7.37717323948312,7.40403330391097,0.875980307608892,0.996372238842624
"238","A165LYRHB4GMMA","5","58","23","""long""","""2-5""","""5-8""","""right""","""complex""","""gaburatum""",0.393164349376114,0.627812012463534,7.2537688186413,7.5809576218774,0.6262453434641,0.956840702777194
"239","A165LYRHB4GMMA","6","56","37","""short""","""3-5""","""3-7""","""left""","""simple""","""gronan""",0.491521184697655,0.598802900536869,7.4576421040624,7.46635694988485,0.820839685741288,0.998832784732776
"240","A165LYRHB4GMMA","7","52","55","""short""","""5-5""","""5-2""","""left""","""complex""","""lopus""",0.654049197860963,0.732388591800357,7.41937065134264,7.40911860957558,0.893035753401319,1.00138370598546
"241","A16J4BMYULRUZ7","0","48","44","""long""","""4-4""","""4-8""","""left""","""complex""","""mipatorun""",0.599862745098039,0.59644761338879,7.44415965744716,7.48492849833601,1.00572578652775,0.994553209038949
"242","A16J4BMYULRUZ7","1","57","23","""long""","""2-5""","""5-7""","""left""","""complex""","""pakuwugnum""",0.393164349376114,0.657452317290553,7.2537688186413,7.53194766740618,0.598011960770624,0.963066810730952
"243","A16J4BMYULRUZ7","2","25","21","""short""","""2-2""","""2-5""","""right""","""complex""","""bugorn""",0.396717626087868,0.365537163309983,7.25000948926994,7.28993416391881,1.08530039051445,0.994523314785684
"244","A16J4BMYULRUZ7","3","36","27","""short""","""2-3""","""3-6""","""right""","""complex""","""vatrus""",0.498480635229298,0.52237068011997,7.25324083665048,7.37717323948312,0.954266106809086,0.983200556797373
"245","A16J4BMYULRUZ7","4","52","38","""long""","""3-5""","""5-2""","""left""","""complex""","""kibagronan""",0.592708884510742,0.732388591800357,7.37820860586072,7.40911860957558,0.80928197291242,0.995828113255616
"246","A16J4BMYULRUZ7","5","34","16","""long""","""1-3""","""3-4""","""right""","""complex""","""gaburatum""",0.0961516339869281,0.454706120023767,7.07781498740677,7.34365297144576,0.211458851668639,0.963800306867353
"247","A16J4BMYULRUZ7","6","43","32","""short""","""3-4""","""3-2""","""left""","""simple""","""ralex""",0.500260812458955,0.59194499618029,7.34357497749828,7.51389426853832,0.84511367726232,0.977332753835359
"248","A16J4BMYULRUZ7","7","51","55","""short""","""5-5""","""5-1""","""right""","""complex""","""lopus""",0.654049197860963,0.643812070282659,7.41937065134264,7.55152734409631,1.01590080094927,0.982499342618816
"249","A16R86EI3MQGB0","0","33","16","""long""","""1-3""","""3-3""","""left""","""complex""","""gaburatum""",0.0961516339869281,0.437312451087946,7.07781498740677,7.35231805220081,0.219869417730325,0.962664419187922
"250","A16R86EI3MQGB0","1","45","48","""short""","""4-4""","""4-5""","""left""","""complex""","""bugorn""",0.59644761338879,0.60023659050397,7.48492849833601,7.45011405562092,0.993687527259878,1.00467300801775
"251","A16R86EI3MQGB0","2","58","43","""long""","""4-5""","""5-8""","""right""","""complex""","""fepolopus""",0.59194499618029,0.627812012463534,7.51389426853832,7.5809576218774,0.942869815213471,0.991153709506891
"252","A16R86EI3MQGB0","3","11","15","""long""","""1-1""","""1-5""","""left""","""simple""","""binivatrus""",0.171708853238265,0.198905525846702,7.13330511343712,7.04719236357878,0.863268390897306,1.01221944079509
"253","A16R86EI3MQGB0","4","22","27","""short""","""2-2""","""2-2""","""right""","""complex""","""gronan""",0.498480635229298,0.400489205783323,7.25324083665048,7.22323860108545,1.24467932726005,1.00415357116412
"254","A16R86EI3MQGB0","5","57","22","""long""","""2-5""","""5-7""","""left""","""complex""","""pakuwugnum""",0.400489205783323,0.657452317290553,7.22323860108545,7.53194766740618,0.609153234768099,0.959013381405099
"255","A16R86EI3MQGB0","6","26","14","""short""","""1-2""","""2-6""","""right""","""complex""","""torun""",0.205391265597148,0.362726450020568,7.106017880143,7.30024971724876,0.56624286865626,0.973393809166988
"256","A16R86EI3MQGB0","7","44","11","""short""","""1-4""","""4-4""","""left""","""complex""","""ralex""",0.198905525846702,0.599862745098039,7.04719236357878,7.44415965744716,0.331585062536587,0.946673995167305
"257","A16SR2HQIWRFD6","0","41","42","""short""","""4-4""","""4-1""","""right""","""complex""","""lopus""",0.601591200602591,0.559609180035651,7.38357413673939,7.47238209549203,1.07502024996135,0.988115174302152
"258","A16SR2HQIWRFD6","1","53","38","""short""","""3-5""","""3-8""","""left""","""simple""","""torun""",0.592708884510742,0.650860276977924,7.37820860586072,7.49631198228932,0.910654568232078,0.984245135913816
"259","A16SR2HQIWRFD6","2","54","45","""long""","""4-5""","""5-4""","""right""","""complex""","""kibagronan""",0.60023659050397,0.614266488413547,7.45011405562092,7.52245949482209,0.977159916462622,0.990382741276179
"260","A16SR2HQIWRFD6","3","47","16","""short""","""1-4""","""1-6""","""right""","""simple""","""ralex""",0.0961516339869281,0.596326967150497,7.07781498740677,7.40403330391097,0.16123978837714,0.955940457975535
"261","A16SR2HQIWRFD6","4","42","21","""long""","""2-4""","""4-2""","""left""","""complex""","""pakuwugnum""",0.396717626087868,0.601591200602591,7.25000948926994,7.38357413673939,0.659447188872595,0.981910570003644
"262","A16SR2HQIWRFD6","5","26","17","""long""","""1-2""","""1-7""","""right""","""simple""","""gaburatum""",0.226620320855615,0.362726450020568,7.21094692940482,7.30024971724876,0.624769218905224,0.987767159850308
"263","A16SR2HQIWRFD6","6","18","14","""long""","""1-1""","""1-8""","""right""","""complex""","""tupabugorn""",0.205391265597148,0.213287175157144,7.106017880143,7.15638039732531,0.962979914032907,0.992962571246054
"264","A16SR2HQIWRFD6","7","35","13","""short""","""1-3""","""1-3""","""right""","""simple""","""vatrus""",0.240463209407226,0.545940690325717,7.12022004272548,7.38057144653556,0.440456653384385,0.964724763428408
"265","A16TES97M5WO5Y","0","48","46","""short""","""4-4""","""4-8""","""right""","""complex""","""wugnum""",0.614648336563144,0.59644761338879,7.4808403912451,7.48492849833601,1.03051520831971,0.999453821490503
"266","A16TES97M5WO5Y","1","41","13","""long""","""1-4""","""1-3""","""left""","""simple""","""mipatorun""",0.240463209407226,0.559609180035651,7.12022004272548,7.47238209549203,0.429698471693954,0.952871514295421
"267","A16TES97M5WO5Y","2","44","37","""short""","""3-4""","""4-4""","""left""","""complex""","""ratum""",0.491521184697655,0.599862745098039,7.4576421040624,7.44415965744716,0.819389416519479,1.00181114420373
"268","A16TES97M5WO5Y","3","53","31","""long""","""3-5""","""3-1""","""right""","""simple""","""tiburalex""",0.589474738918958,0.650860276977924,7.26311607655564,7.49631198228932,0.905685536158403,0.968891915613354
"269","A16TES97M5WO5Y","4","12","18","""short""","""1-1""","""1-8""","""right""","""simple""","""bugorn""",0.213287175157144,0.067770971422087,7.15638039732531,7.12566153316537,3.14717600591501,1.00431101926705
"270","A16TES97M5WO5Y","5","35","14","""long""","""1-3""","""3-5""","""left""","""complex""","""kibagronan""",0.205391265597148,0.545940690325717,7.106017880143,7.38057144653556,0.376215345799941,0.962800500153489
"271","A16TES97M5WO5Y","6","37","32","""short""","""3-3""","""3-2""","""right""","""simple""","""lopus""",0.500260812458955,0.491521184697655,7.34357497749828,7.4576421040624,1.01778077534273,0.984704666036201
"272","A16TES97M5WO5Y","7","46","25","""long""","""2-4""","""2-5""","""right""","""simple""","""binivatrus""",0.365537163309983,0.614648336563144,7.28993416391881,7.4808403912451,0.594709432313628,0.974480644240223
"273","A171UMOFDHIO58","0","27","14","""long""","""1-2""","""2-7""","""left""","""complex""","""kibagronan""",0.205391265597148,0.498480635229298,7.106017880143,7.25324083665048,0.412034592883772,0.979702458552932
"274","A171UMOFDHIO58","1","48","36","""short""","""3-4""","""3-6""","""right""","""simple""","""vatrus""",0.52237068011997,0.59644761338879,7.37717323948312,7.48492849833601,0.875803118989876,0.985603702309669
"275","A171UMOFDHIO58","2","43","25","""short""","""2-4""","""4-3""","""left""","""complex""","""ratum""",0.365537163309983,0.59194499618029,7.28993416391881,7.51389426853832,0.617518799328866,0.970193870632801
"276","A171UMOFDHIO58","3","32","21","""long""","""2-3""","""3-2""","""left""","""complex""","""tiburalex""",0.396717626087868,0.500260812458955,7.25000948926994,7.34357497749828,0.793021592352724,0.987258863902794
"277","A171UMOFDHIO58","4","15","12","""short""","""1-1""","""1-5""","""right""","""complex""","""bugorn""",0.067770971422087,0.171708853238265,7.12566153316537,7.13330511343712,0.394685365046654,0.998928465816308
"278","A171UMOFDHIO58","5","46","17","""short""","""1-4""","""1-7""","""right""","""simple""","""lopus""",0.226620320855615,0.614648336563144,7.21094692940482,7.4808403912451,0.368699152628934,0.963922039807701
"279","A171UMOFDHIO58","6","34","13","""long""","""1-3""","""3-4""","""left""","""complex""","""mipatorun""",0.240463209407226,0.454706120023767,7.12022004272548,7.34365297144576,0.528832137545581,0.969574688565888
"280","A171UMOFDHIO58","7","51","28","""long""","""2-5""","""5-1""","""right""","""complex""","""pakuwugnum""",0.388259920156472,0.643812070282659,7.14928546016887,7.55152734409631,0.603064058718269,0.946733704905153
"281","A179OX1482SRXK","0","31","25","""short""","""2-3""","""3-1""","""right""","""complex""","""lopus""",0.365537163309983,0.589474738918958,7.28993416391881,7.26311607655564,0.620106578240052,1.00369236662068
"282","A179OX1482SRXK","1","47","26","""long""","""2-4""","""4-7""","""right""","""complex""","""tiburalex""",0.362726450020568,0.596326967150497,7.30024971724876,7.40403330391097,0.608267728950493,0.985982830924411
"283","A179OX1482SRXK","2","46","41","""long""","""4-4""","""4-6""","""right""","""complex""","""kibagronan""",0.559609180035651,0.614648336563144,7.47238209549203,7.4808403912451,0.910454233334057,0.998869338829502
"284","A179OX1482SRXK","3","58","12","""long""","""1-5""","""5-8""","""left""","""complex""","""gaburatum""",0.067770971422087,0.627812012463534,7.12566153316537,7.5809576218774,0.107947873052243,0.939942140370483
"285","A179OX1482SRXK","4","15","14","""short""","""1-1""","""1-5""","""right""","""complex""","""wugnum""",0.205391265597148,0.171708853238265,7.106017880143,7.13330511343712,1.19616002159274,0.996174671788156
"286","A179OX1482SRXK","5","53","47","""short""","""4-5""","""5-3""","""right""","""complex""","""bugorn""",0.596326967150497,0.650860276977924,7.40403330391097,7.49631198228932,0.916213491963842,0.987690123010306
"287","A179OX1482SRXK","6","22","18","""short""","""1-2""","""1-8""","""left""","""simple""","""torun""",0.213287175157144,0.400489205783323,7.15638039732531,7.22323860108545,0.532566601239532,0.99074401283794
"288","A179OX1482SRXK","7","54","53","""long""","""5-5""","""5-4""","""right""","""complex""","""binivatrus""",0.650860276977924,0.614266488413547,7.49631198228932,7.52245949482209,1.05957314822576,0.996524074001227
"289","A17KNYRSG30FYQ","0","45","44","""short""","""4-4""","""4-5""","""right""","""complex""","""ralex""",0.599862745098039,0.60023659050397,7.44415965744716,7.45011405562092,0.999377169916254,0.99920076415887
"290","A17KNYRSG30FYQ","1","14","15","""short""","""1-1""","""1-5""","""left""","""simple""","""bugorn""",0.171708853238265,0.205391265597148,7.13330511343712,7.106017880143,0.836008545636272,1.00384001753927
"291","A17KNYRSG30FYQ","2","56","42","""short""","""4-5""","""5-6""","""right""","""complex""","""vatrus""",0.601591200602591,0.598802900536869,7.38357413673939,7.46635694988485,1.00465645718019,0.98891255619024
"292","A17KNYRSG30FYQ","3","31","37","""short""","""3-3""","""3-7""","""right""","""simple""","""wugnum""",0.491521184697655,0.589474738918958,7.4576421040624,7.26311607655564,0.833829089265232,1.02678272320811
"293","A17KNYRSG30FYQ","4","23","18","""long""","""1-2""","""2-3""","""right""","""complex""","""gaburatum""",0.213287175157144,0.393164349376114,7.15638039732531,7.2537688186413,0.542488594135239,0.986574093584881
"294","A17KNYRSG30FYQ","5","48","36","""long""","""3-4""","""4-8""","""right""","""complex""","""mipatorun""",0.52237068011997,0.59644761338879,7.37717323948312,7.48492849833601,0.875803118989876,0.985603702309669
"295","A17KNYRSG30FYQ","6","57","53","""long""","""5-5""","""5-3""","""left""","""simple""","""kibagronan""",0.650860276977924,0.657452317290553,7.49631198228932,7.53194766740618,0.989973356030144,0.99526872906047
"296","A17KNYRSG30FYQ","7","52","21","""long""","""2-5""","""5-2""","""left""","""complex""","""fepolopus""",0.396717626087868,0.732388591800357,7.25000948926994,7.40911860957558,0.541676414036785,0.978525229694662
"297","A17LYKKC0HK62P","0","52","11","""long""","""1-5""","""5-2""","""right""","""complex""","""fepolopus""",0.198905525846702,0.732388591800357,7.04719236357878,7.40911860957558,0.271584686153771,0.951151241454139
"298","A17LYKKC0HK62P","1","27","22","""short""","""2-2""","""2-2""","""right""","""simple""","""wugnum""",0.400489205783323,0.498480635229298,7.22323860108545,7.25324083665048,0.803419787007574,0.995863609627654
"299","A17LYKKC0HK62P","2","38","17","""short""","""1-3""","""1-7""","""left""","""simple""","""ralex""",0.226620320855615,0.592708884510742,7.21094692940482,7.37820860586072,0.382346758717277,0.977330313441797
"300","A17LYKKC0HK62P","3","45","13","""long""","""1-4""","""1-3""","""left""","""simple""","""binivatrus""",0.240463209407226,0.60023659050397,7.12022004272548,7.45011405562092,0.40061404654676,0.955719602353397
"301","A17LYKKC0HK62P","4","56","45","""long""","""4-5""","""5-6""","""left""","""complex""","""kibagronan""",0.60023659050397,0.598802900536869,7.45011405562092,7.46635694988485,1.00239426022455,0.997824522136705
"302","A17LYKKC0HK62P","5","34","36","""long""","""3-3""","""3-4""","""right""","""complex""","""gaburatum""",0.52237068011997,0.454706120023767,7.37717323948312,7.34365297144576,1.14880943342629,1.00456452233891
"303","A17LYKKC0HK62P","6","41","24","""short""","""2-4""","""2-4""","""right""","""simple""","""torun""",0.409232560903149,0.559609180035651,7.29336768842468,7.47238209549203,0.731282787171358,0.976043194154198
"304","A17LYKKC0HK62P","7","53","38","""short""","""3-5""","""5-3""","""left""","""complex""","""bugorn""",0.592708884510742,0.650860276977924,7.37820860586072,7.49631198228932,0.910654568232078,0.984245135913816
"305","A17TRGC97XXRP","0","35","38","""short""","""3-3""","""3-8""","""left""","""simple""","""lopus""",0.592708884510742,0.545940690325717,7.37820860586072,7.38057144653556,1.0856653387699,0.999679856676145
"306","A17TRGC97XXRP","1","23","21","""short""","""2-2""","""2-3""","""right""","""complex""","""bugorn""",0.396717626087868,0.393164349376114,7.25000948926994,7.2537688186413,1.00903763710365,0.999481741220964
"307","A17TRGC97XXRP","2","52","35","""long""","""3-5""","""5-2""","""left""","""complex""","""pakuwugnum""",0.545940690325717,0.732388591800357,7.38057144653556,7.40911860957558,0.74542489661627,0.996147023074631
"308","A17TRGC97XXRP","3","58","42","""long""","""4-5""","""4-2""","""left""","""simple""","""gaburatum""",0.601591200602591,0.627812012463534,7.38357413673939,7.5809576218774,0.958234612685965,0.973963251744292
"309","A17TRGC97XXRP","4","36","23","""long""","""2-3""","""3-6""","""left""","""complex""","""kibagronan""",0.393164349376114,0.52237068011997,7.2537688186413,7.37717323948312,0.752653937785747,0.98327212648588
"310","A17TRGC97XXRP","5","47","44","""short""","""4-4""","""4-7""","""right""","""complex""","""ralex""",0.599862745098039,0.596326967150497,7.44415965744716,7.40403330391097,1.00592926052705,1.00541952634316
"311","A17TRGC97XXRP","6","31","17","""short""","""1-3""","""3-1""","""right""","""complex""","""torun""",0.226620320855615,0.589474738918958,7.21094692940482,7.26311607655564,0.384444499303254,0.99281724997908
"312","A17TRGC97XXRP","7","44","26","""long""","""2-4""","""4-4""","""right""","""complex""","""binivatrus""",0.362726450020568,0.599862745098039,7.30024971724876,7.44415965744716,0.604682409408982,0.980668074460973
"313","A17VOZ014435L4","0","53","52","""long""","""5-5""","""5-2""","""left""","""simple""","""tiburalex""",0.732388591800357,0.650860276977924,7.40911860957558,7.49631198228932,1.12526239149359,0.988368497346463
"314","A17VOZ014435L4","1","41","18","""long""","""1-4""","""4-1""","""left""","""complex""","""fepolopus""",0.213287175157144,0.559609180035651,7.15638039732531,7.47238209549203,0.381135947668972,0.957710714718756
"315","A17VOZ014435L4","2","54","15","""long""","""1-5""","""5-4""","""left""","""complex""","""kibagronan""",0.171708853238265,0.614266488413547,7.13330511343712,7.52245949482209,0.279534789015975,0.948267666758081
"316","A17VOZ014435L4","3","28","23","""short""","""2-2""","""2-3""","""right""","""simple""","""vatrus""",0.393164349376114,0.388259920156472,7.2537688186413,7.14928546016887,1.01263181947203,1.0146145176402
"317","A17VOZ014435L4","4","17","14","""short""","""1-1""","""1-7""","""right""","""complex""","""bugorn""",0.205391265597148,0.226620320855615,7.106017880143,7.21094692940482,0.906323249484796,0.985448644915976
"318","A17VOZ014435L4","5","56","41","""long""","""4-5""","""4-1""","""left""","""simple""","""gaburatum""",0.559609180035651,0.598802900536869,7.47238209549203,7.46635694988485,0.934546541998915,1.00080697261698
"319","A17VOZ014435L4","6","55","37","""short""","""3-5""","""5-5""","""left""","""complex""","""torun""",0.491521184697655,0.654049197860963,7.4576421040624,7.41937065134264,0.751504911717883,1.00515831524239
"320","A17VOZ014435L4","7","42","46","""short""","""4-4""","""4-6""","""right""","""simple""","""wugnum""",0.614648336563144,0.601591200602591,7.4808403912451,7.38357413673939,1.02170433335374,1.01317332943428
"321","A181JSZFHB4ZDU","0","56","24","""long""","""2-5""","""5-6""","""right""","""complex""","""gaburatum""",0.409232560903149,0.598802900536869,7.29336768842468,7.46635694988485,0.683417799974321,0.976830834284873
"322","A181JSZFHB4ZDU","1","52","37","""long""","""3-5""","""5-2""","""left""","""complex""","""fepolopus""",0.491521184697655,0.732388591800357,7.4576421040624,7.40911860957558,0.671120755020771,1.00654915881953
"323","A181JSZFHB4ZDU","2","34","18","""long""","""1-3""","""3-4""","""left""","""complex""","""binivatrus""",0.213287175157144,0.454706120023767,7.15638039732531,7.34365297144576,0.469065987381027,0.974498716803664
"324","A181JSZFHB4ZDU","3","27","13","""short""","""1-2""","""2-7""","""right""","""complex""","""ralex""",0.240463209407226,0.498480635229298,7.12022004272548,7.25324083665048,0.482392278481619,0.981660502260886
"325","A181JSZFHB4ZDU","4","31","25","""short""","""2-3""","""2-5""","""right""","""simple""","""gronan""",0.365537163309983,0.589474738918958,7.28993416391881,7.26311607655564,0.620106578240052,1.00369236662068
"326","A181JSZFHB4ZDU","5","58","51","""long""","""5-5""","""5-1""","""left""","""simple""","""mipatorun""",0.643812070282659,0.627812012463534,7.55152734409631,7.5809576218774,1.02548542796488,0.996117868051899
"327","A181JSZFHB4ZDU","6","53","16","""short""","""1-5""","""1-6""","""left""","""simple""","""wugnum""",0.0961516339869281,0.650860276977924,7.07781498740677,7.49631198228932,0.147730069552531,0.944172948528385
"328","A181JSZFHB4ZDU","7","45","12","""short""","""1-4""","""4-5""","""right""","""complex""","""bugorn""",0.067770971422087,0.60023659050397,7.12566153316537,7.45011405562092,0.112907097791531,0.95644999257283
"329","A182CHO6N044YK","0","24","11","""long""","""1-2""","""2-4""","""left""","""complex""","""tiburalex""",0.198905525846702,0.409232560903149,7.04719236357878,7.29336768842468,0.486045209618049,0.966246686666215
"330","A182CHO6N044YK","1","42","43","""short""","""4-4""","""4-3""","""left""","""simple""","""vatrus""",0.59194499618029,0.601591200602591,7.51389426853832,7.38357413673939,0.983965516096913,1.01765000653958
"331","A182CHO6N044YK","2","26","28","""long""","""2-2""","""2-8""","""right""","""simple""","""pakuwugnum""",0.388259920156472,0.362726450020568,7.14928546016887,7.30024971724876,1.07039318509708,0.979320672178762
"332","A182CHO6N044YK","3","57","34","""short""","""3-5""","""5-7""","""left""","""complex""","""gronan""",0.454706120023767,0.657452317290553,7.34365297144576,7.53194766740618,0.691618400400002,0.975000530503518
"333","A182CHO6N044YK","4","58","47","""long""","""4-5""","""4-7""","""right""","""simple""","""fepolopus""",0.596326967150497,0.627812012463534,7.40403330391097,7.5809576218774,0.949849565334869,0.976662009367279
"334","A182CHO6N044YK","5","35","36","""short""","""3-3""","""3-6""","""right""","""simple""","""ratum""",0.52237068011997,0.545940690325717,7.37717323948312,7.38057144653556,0.956826793416544,0.999539573991383
"335","A182CHO6N044YK","6","33","12","""long""","""1-3""","""3-3""","""left""","""complex""","""tupabugorn""",0.067770971422087,0.437312451087946,7.12566153316537,7.35231805220081,0.154971511223809,0.969172100903933
"336","A182CHO6N044YK","7","41","35","""short""","""3-4""","""3-5""","""left""","""simple""","""torun""",0.545940690325717,0.559609180035651,7.38057144653556,7.47238209549203,0.975574936585095,0.987713335883632
"337","A184G5AJPKOK3W","0","58","15","""long""","""1-5""","""5-8""","""right""","""complex""","""tiburalex""",0.171708853238265,0.627812012463534,7.13330511343712,7.5809576218774,0.273503612274763,0.940950400890195
"338","A184G5AJPKOK3W","1","52","56","""long""","""5-5""","""5-2""","""right""","""complex""","""mipatorun""",0.598802900536869,0.732388591800357,7.46635694988485,7.40911860957558,0.817602714243394,1.0077253912814
"339","A184G5AJPKOK3W","2","43","12","""short""","""1-4""","""4-3""","""right""","""complex""","""lopus""",0.067770971422087,0.59194499618029,7.12566153316537,7.51389426853832,0.114488629618293,0.94833135502072
"340","A184G5AJPKOK3W","3","37","33","""short""","""3-3""","""3-3""","""left""","""simple""","""gronan""",0.437312451087946,0.491521184697655,7.35231805220081,7.4576421040624,0.889712314957383,0.985877030515554
"341","A184G5AJPKOK3W","4","45","37","""short""","""3-4""","""3-7""","""right""","""simple""","""ratum""",0.491521184697655,0.60023659050397,7.4576421040624,7.45011405562092,0.818879076140567,1.00101046083124
"342","A184G5AJPKOK3W","5","14","11","""short""","""1-1""","""1-1""","""right""","""simple""","""wugnum""",0.198905525846702,0.205391265597148,7.04719236357878,7.106017880143,0.968422514309021,0.991721732543257
"343","A184G5AJPKOK3W","6","41","24","""long""","""2-4""","""2-4""","""left""","""simple""","""tupabugorn""",0.409232560903149,0.559609180035651,7.29336768842468,7.47238209549203,0.731282787171358,0.976043194154198
"344","A184G5AJPKOK3W","7","36","28","""long""","""2-3""","""3-6""","""left""","""complex""","""binivatrus""",0.388259920156472,0.52237068011997,7.14928546016887,7.37717323948312,0.743265146633617,0.969109064960739
"345","A184KIOUPMO2HX","0","53","15","""long""","""1-5""","""1-5""","""right""","""simple""","""fepolopus""",0.171708853238265,0.650860276977924,7.13330511343712,7.49631198228932,0.263818302194665,0.951575271985767
"346","A184KIOUPMO2HX","1","21","12","""long""","""1-2""","""2-1""","""left""","""complex""","""mipatorun""",0.067770971422087,0.396717626087868,7.12566153316537,7.25000948926994,0.170829242175079,0.98284858022757
"347","A184KIOUPMO2HX","2","48","33","""long""","""3-4""","""3-3""","""right""","""simple""","""kibagronan""",0.437312451087946,0.59644761338879,7.35231805220081,7.48492849833601,0.733195072410973,0.982283004284586
"348","A184KIOUPMO2HX","3","15","14","""short""","""1-1""","""1-4""","""right""","""simple""","""ratum""",0.205391265597148,0.171708853238265,7.106017880143,7.13330511343712,1.19616002159274,0.996174671788156
"349","A184KIOUPMO2HX","4","54","56","""short""","""5-5""","""5-4""","""right""","""complex""","""vatrus""",0.598802900536869,0.614266488413547,7.46635694988485,7.52245949482209,0.974825929513727,0.992541994413415
"350","A184KIOUPMO2HX","5","47","28","""short""","""2-4""","""4-7""","""right""","""complex""","""ralex""",0.388259920156472,0.596326967150497,7.14928546016887,7.40403330391097,0.651085631783084,0.965593368737613
"351","A184KIOUPMO2HX","6","26","27","""long""","""2-2""","""2-7""","""left""","""simple""","""tupabugorn""",0.498480635229298,0.362726450020568,7.25324083665048,7.30024971724876,1.37426050733558,0.993560647591656
"352","A184KIOUPMO2HX","7","32","31","""short""","""3-3""","""3-2""","""right""","""complex""","""wugnum""",0.589474738918958,0.500260812458955,7.26311607655564,7.34357497749828,1.17833482902945,0.989043633218265
"353","A18HAAGXN14547","0","48","16","""long""","""1-4""","""4-8""","""right""","""complex""","""pakuwugnum""",0.0961516339869281,0.59644761338879,7.07781498740677,7.48492849833601,0.161207173653744,0.945608897797788
"354","A18HAAGXN14547","1","44","33","""long""","""3-4""","""4-4""","""right""","""complex""","""tiburalex""",0.437312451087946,0.599862745098039,7.35231805220081,7.44415965744716,0.729020854623125,0.987662595984965
"355","A18HAAGXN14547","2","51","38","""short""","""3-5""","""3-8""","""right""","""simple""","""ratum""",0.592708884510742,0.643812070282659,7.37820860586072,7.55152734409631,0.920624063867767,0.977048518751496
"356","A18HAAGXN14547","3","45","42","""short""","""4-4""","""4-5""","""right""","""complex""","""torun""",0.601591200602591,0.60023659050397,7.38357413673939,7.45011405562092,1.00225679360447,0.991068603999246
"357","A18HAAGXN14547","4","53","21","""long""","""2-5""","""5-3""","""left""","""complex""","""fepolopus""",0.396717626087868,0.650860276977924,7.25000948926994,7.49631198228932,0.609528097074703,0.967143510888916
"358","A18HAAGXN14547","5","57","55","""long""","""5-5""","""5-7""","""left""","""complex""","""kibagronan""",0.654049197860963,0.657452317290553,7.41937065134264,7.53194766740618,0.994823777572776,0.98505339906294
"359","A18HAAGXN14547","6","12","17","""short""","""1-1""","""1-7""","""left""","""simple""","""bugorn""",0.226620320855615,0.067770971422087,7.21094692940482,7.12566153316537,3.34391430579019,1.01196876891254
"360","A18HAAGXN14547","7","56","14","""short""","""1-5""","""5-6""","""left""","""complex""","""vatrus""",0.205391265597148,0.598802900536869,7.106017880143,7.46635694988485,0.343003124088077,0.951738301267875
"361","A18PQMGPELCZ7P","0","52","21","""long""","""2-5""","""5-2""","""right""","""complex""","""tupabugorn""",0.396717626087868,0.732388591800357,7.25000948926994,7.40911860957558,0.541676414036785,0.978525229694662
"362","A18PQMGPELCZ7P","1","51","57","""long""","""5-5""","""5-1""","""left""","""complex""","""pakuwugnum""",0.657452317290553,0.643812070282659,7.53194766740618,7.55152734409631,1.0211866903985,0.997407189857369
"363","A18PQMGPELCZ7P","2","37","36","""short""","""3-3""","""3-7""","""right""","""complex""","""torun""",0.52237068011997,0.491521184697655,7.37717323948312,7.4576421040624,1.06276330783441,0.989209878476812
"364","A18PQMGPELCZ7P","3","25","22","""long""","""2-2""","""2-2""","""left""","""simple""","""binivatrus""",0.400489205783323,0.365537163309983,7.22323860108545,7.28993416391881,1.09561830090502,0.990851006149896
"365","A18PQMGPELCZ7P","4","33","15","""short""","""1-3""","""3-3""","""left""","""complex""","""lopus""",0.171708853238265,0.437312451087946,7.13330511343712,7.35231805220081,0.392645699456047,0.970211715922962
"366","A18PQMGPELCZ7P","5","54","38","""short""","""3-5""","""3-8""","""right""","""simple""","""ratum""",0.592708884510742,0.614266488413547,7.37820860586072,7.52245949482209,0.964905127807832,0.980823972656727
"367","A18PQMGPELCZ7P","6","58","13","""long""","""1-5""","""5-8""","""right""","""complex""","""tiburalex""",0.240463209407226,0.627812012463534,7.12022004272548,7.5809576218774,0.383017853487143,0.939224356323757
"368","A18PQMGPELCZ7P","7","16","14","""short""","""1-1""","""1-4""","""left""","""simple""","""gronan""",0.205391265597148,0.0961516339869281,7.106017880143,7.07781498740677,2.13611830689296,1.00398468917122
"369","A18S0BP7RORYJA","0","24","21","""long""","""2-2""","""2-4""","""right""","""complex""","""tiburalex""",0.396717626087868,0.409232560903149,7.25000948926994,7.29336768842468,0.969418526258855,0.994055119526806
"370","A18S0BP7RORYJA","1","52","53","""long""","""5-5""","""5-2""","""left""","""complex""","""tupabugorn""",0.650860276977924,0.732388591800357,7.49631198228932,7.40911860957558,0.888681615558729,1.01176838667437
"371","A18S0BP7RORYJA","2","41","38","""short""","""3-4""","""4-1""","""left""","""complex""","""ratum""",0.592708884510742,0.559609180035651,7.37820860586072,7.47238209549203,1.05914789402308,0.987397126053267
"372","A18S0BP7RORYJA","3","25","17","""long""","""1-2""","""1-7""","""left""","""simple""","""kibagronan""",0.226620320855615,0.365537163309983,7.21094692940482,7.28993416391881,0.619965200811706,0.989164890554851
"373","A18S0BP7RORYJA","4","13","12","""short""","""1-1""","""1-3""","""left""","""complex""","""lopus""",0.067770971422087,0.240463209407226,7.12566153316537,7.12022004272548,0.281835094812015,1.00076423065681
"374","A18S0BP7RORYJA","5","58","46","""short""","""4-5""","""5-8""","""right""","""complex""","""torun""",0.614648336563144,0.627812012463534,7.4808403912451,7.5809576218774,0.97903245615079,0.986793590516404
"375","A18S0BP7RORYJA","6","46","25","""long""","""2-4""","""4-6""","""right""","""complex""","""pakuwugnum""",0.365537163309983,0.614648336563144,7.28993416391881,7.4808403912451,0.594709432313628,0.974480644240223
"376","A18S0BP7RORYJA","7","47","14","""short""","""1-4""","""4-7""","""left""","""complex""","""vatrus""",0.205391265597148,0.596326967150497,7.106017880143,7.40403330391097,0.344427263751956,0.959749583566763
"377","A18T7E73TNGOKP","0","31","27","""long""","""2-3""","""2-7""","""left""","""simple""","""tupabugorn""",0.498480635229298,0.589474738918958,7.25324083665048,7.26311607655564,0.845635278864477,0.998640357692061
"378","A18T7E73TNGOKP","1","57","48","""long""","""4-5""","""5-7""","""left""","""complex""","""binivatrus""",0.59644761338879,0.657452317290553,7.48492849833601,7.53194766740618,0.907210451165232,0.993757369123309
"379","A18T7E73TNGOKP","2","28","15","""short""","""1-2""","""1-5""","""right""","""simple""","""ralex""",0.171708853238265,0.388259920156472,7.13330511343712,7.14928546016887,0.442252327175736,0.997764763091251
"380","A18T7E73TNGOKP","3","42","46","""short""","""4-4""","""4-6""","""left""","""simple""","""ratum""",0.614648336563144,0.601591200602591,7.4808403912451,7.38357413673939,1.02170433335374,1.01317332943428
"381","A18T7E73TNGOKP","4","33","11","""short""","""1-3""","""1-1""","""left""","""simple""","""wugnum""",0.198905525846702,0.437312451087946,7.04719236357878,7.35231805220081,0.454836182578074,0.958499389382279
"382","A18T7E73TNGOKP","5","54","23","""long""","""2-5""","""2-3""","""left""","""simple""","""fepolopus""",0.393164349376114,0.614266488413547,7.2537688186413,7.52245949482209,0.640055019754588,0.964281538987915
"383","A18T7E73TNGOKP","6","35","34","""long""","""3-3""","""3-4""","""left""","""simple""","""mipatorun""",0.454706120023767,0.545940690325717,7.34365297144576,7.38057144653556,0.832885564460275,0.994997883923049
"384","A18T7E73TNGOKP","7","16","12","""short""","""1-1""","""1-6""","""right""","""complex""","""gronan""",0.067770971422087,0.0961516339869281,7.12566153316537,7.07781498740677,0.704834318585793,1.00676007296655
"385","A197CFEJALDG44","0","33","17","""short""","""1-3""","""3-3""","""left""","""complex""","""ralex""",0.226620320855615,0.437312451087946,7.21094692940482,7.35231805220081,0.51821145337122,0.980771897816135
"386","A197CFEJALDG44","1","47","23","""short""","""2-4""","""2-3""","""right""","""simple""","""lopus""",0.393164349376114,0.596326967150497,7.2537688186413,7.40403330391097,0.659310027944602,0.979705050058284
"387","A197CFEJALDG44","2","11","14","""long""","""1-1""","""1-4""","""right""","""simple""","""pakuwugnum""",0.205391265597148,0.198905525846702,7.106017880143,7.04719236357878,1.03260713709605,1.00834736921164
"388","A197CFEJALDG44","3","22","11","""long""","""1-2""","""2-2""","""right""","""complex""","""tupabugorn""",0.198905525846702,0.400489205783323,7.04719236357878,7.22323860108545,0.496656396662826,0.975627796999505
"389","A197CFEJALDG44","4","45","18","""long""","""1-4""","""4-5""","""right""","""complex""","""kibagronan""",0.213287175157144,0.60023659050397,7.15638039732531,7.45011405562092,0.355338509067006,0.96057326691878
"390","A197CFEJALDG44","5","48","46","""short""","""4-4""","""4-6""","""left""","""simple""","""ratum""",0.614648336563144,0.59644761338879,7.4808403912451,7.48492849833601,1.03051520831971,0.999453821490503
"391","A197CFEJALDG44","6","36","32","""long""","""3-3""","""3-2""","""left""","""simple""","""mipatorun""",0.500260812458955,0.52237068011997,7.34357497749828,7.37717323948312,0.957673988027167,0.995445645521103
"392","A197CFEJALDG44","7","54","35","""short""","""3-5""","""5-4""","""left""","""complex""","""vatrus""",0.545940690325717,0.614266488413547,7.38057144653556,7.52245949482209,0.888768475284573,0.981138077462006
"393","A19APP45SJO26S","0","47","28","""short""","""2-4""","""4-7""","""left""","""complex""","""lopus""",0.388259920156472,0.596326967150497,7.14928546016887,7.40403330391097,0.651085631783084,0.965593368737613
"394","A19APP45SJO26S","1","33","36","""long""","""3-3""","""3-3""","""left""","""complex""","""kibagronan""",0.52237068011997,0.437312451087946,7.37717323948312,7.35231805220081,1.19450218904222,1.00338059195832
"395","A19APP45SJO26S","2","44","35","""short""","""3-4""","""4-4""","""right""","""complex""","""torun""",0.545940690325717,0.599862745098039,7.38057144653556,7.44415965744716,0.910109345491177,0.991457973251825
"396","A19APP45SJO26S","3","11","13","""long""","""1-1""","""1-3""","""right""","""simple""","""tiburalex""",0.240463209407226,0.198905525846702,7.12022004272548,7.04719236357878,1.20893176991248,1.01036266294136
"397","A19APP45SJO26S","4","25","14","""short""","""1-2""","""2-5""","""right""","""complex""","""ratum""",0.205391265597148,0.365537163309983,7.106017880143,7.28993416391881,0.561888875367159,0.974771200995738
"398","A19APP45SJO26S","5","32","17","""short""","""1-3""","""1-7""","""left""","""simple""","""wugnum""",0.226620320855615,0.500260812458955,7.21094692940482,7.34357497749828,0.453004343357813,0.981939580041077
"399","A19APP45SJO26S","6","36","22","""long""","""2-3""","""2-2""","""left""","""simple""","""binivatrus""",0.400489205783323,0.52237068011997,7.22323860108545,7.37717323948312,0.766676272281103,0.97913365548015
"400","A19APP45SJO26S","7","58","11","""long""","""1-5""","""5-8""","""right""","""complex""","""tupabugorn""",0.198905525846702,0.627812012463534,7.04719236357878,7.5809576218774,0.316823383270729,0.929591314854701
"401","A1AA1DTBHJJ5Z9","0","32","24","""short""","""2-3""","""2-4""","""left""","""simple""","""gronan""",0.409232560903149,0.500260812458955,7.29336768842468,7.34357497749828,0.818038412586485,0.993163099821621
"402","A1AA1DTBHJJ5Z9","1","54","23","""short""","""2-5""","""2-3""","""left""","""simple""","""vatrus""",0.393164349376114,0.614266488413547,7.2537688186413,7.52245949482209,0.640055019754588,0.964281538987915
"403","A1AA1DTBHJJ5Z9","2","36","12","""long""","""1-3""","""3-6""","""left""","""complex""","""fepolopus""",0.067770971422087,0.52237068011997,7.12566153316537,7.37717323948312,0.129737318730298,0.965906764264171
"404","A1AA1DTBHJJ5Z9","3","28","25","""long""","""2-2""","""2-8""","""right""","""complex""","""gaburatum""",0.365537163309983,0.388259920156472,7.28993416391881,7.14928546016887,0.941475399167312,1.01967311342281
"405","A1AA1DTBHJJ5Z9","4","41","26","""long""","""2-4""","""2-6""","""right""","""simple""","""mipatorun""",0.362726450020568,0.559609180035651,7.30024971724876,7.47238209549203,0.648178162476641,0.976964189458792
"406","A1AA1DTBHJJ5Z9","5","15","17","""long""","""1-1""","""1-5""","""left""","""complex""","""pakuwugnum""",0.226620320855615,0.171708853238265,7.21094692940482,7.13330511343712,1.31979403846553,1.01088440978382
"407","A1AA1DTBHJJ5Z9","6","57","48","""short""","""4-5""","""5-7""","""left""","""complex""","""ralex""",0.59644761338879,0.657452317290553,7.48492849833601,7.53194766740618,0.907210451165232,0.993757369123309
"408","A1AA1DTBHJJ5Z9","7","43","31","""short""","""3-4""","""3-1""","""left""","""simple""","""bugorn""",0.589474738918958,0.59194499618029,7.26311607655564,7.51389426853832,0.995826880407348,0.966624737716536
"409","A1ACU14B2EG8G0","0","57","35","""long""","""3-5""","""5-7""","""left""","""complex""","""binivatrus""",0.545940690325717,0.657452317290553,7.38057144653556,7.53194766740618,0.830388266902169,0.979902114624921
"410","A1ACU14B2EG8G0","1","44","18","""short""","""1-4""","""4-4""","""right""","""complex""","""bugorn""",0.213287175157144,0.599862745098039,7.15638039732531,7.44415965744716,0.355559962508232,0.961341605585534
"411","A1ACU14B2EG8G0","2","55","21","""long""","""2-5""","""5-5""","""left""","""complex""","""pakuwugnum""",0.396717626087868,0.654049197860963,7.25000948926994,7.41937065134264,0.606556245899107,0.977173109414334
"412","A1ACU14B2EG8G0","3","46","24","""long""","""2-4""","""4-6""","""left""","""complex""","""kibagronan""",0.409232560903149,0.614648336563144,7.29336768842468,7.4808403912451,0.665799509344491,0.974939620013839
"413","A1ACU14B2EG8G0","4","11","13","""long""","""1-1""","""1-1""","""right""","""complex""","""gaburatum""",0.240463209407226,0.198905525846702,7.12022004272548,7.04719236357878,1.20893176991248,1.01036266294136
"414","A1ACU14B2EG8G0","5","33","17","""short""","""1-3""","""3-3""","""left""","""complex""","""torun""",0.226620320855615,0.437312451087946,7.21094692940482,7.35231805220081,0.51821145337122,0.980771897816135
"415","A1ACU14B2EG8G0","6","32","26","""short""","""2-3""","""3-2""","""left""","""complex""","""lopus""",0.362726450020568,0.500260812458955,7.30024971724876,7.34357497749828,0.725074683019127,0.994100249485806
"416","A1ACU14B2EG8G0","7","48","42","""short""","""4-4""","""4-2""","""left""","""simple""","""ralex""",0.601591200602591,0.59644761338879,7.38357413673939,7.48492849833601,1.00862370323619,0.986458873772922
"417","A1ADI35KR2J6SX","0","33","27","""short""","""2-3""","""2-7""","""right""","""simple""","""ralex""",0.498480635229298,0.437312451087946,7.25324083665048,7.35231805220081,1.13987295351225,0.986524356693101
"418","A1ADI35KR2J6SX","1","22","13","""short""","""1-2""","""2-2""","""right""","""complex""","""bugorn""",0.240463209407226,0.400489205783323,7.12022004272548,7.22323860108545,0.600423696655944,0.985737899016033
"419","A1ADI35KR2J6SX","2","44","11","""long""","""1-4""","""4-4""","""right""","""complex""","""pakuwugnum""",0.198905525846702,0.599862745098039,7.04719236357878,7.44415965744716,0.331585062536587,0.946673995167305
"420","A1ADI35KR2J6SX","3","55","26","""short""","""2-5""","""5-5""","""right""","""complex""","""vatrus""",0.362726450020568,0.654049197860963,7.30024971724876,7.41937065134264,0.554585880094109,0.983944603970915
"421","A1ADI35KR2J6SX","4","58","54","""long""","""5-5""","""5-8""","""right""","""complex""","""kibagronan""",0.614266488413547,0.627812012463534,7.52245949482209,7.5809576218774,0.978424235629334,0.992283543851176
"422","A1ADI35KR2J6SX","5","17","12","""long""","""1-1""","""1-7""","""right""","""complex""","""gaburatum""",0.067770971422087,0.226620320855615,7.12566153316537,7.21094692940482,0.299050725752283,0.988172788251752
"423","A1ADI35KR2J6SX","6","41","28","""short""","""2-4""","""2-8""","""right""","""simple""","""lopus""",0.388259920156472,0.559609180035651,7.14928546016887,7.47238209549203,0.693805487843743,0.956761226715363
"424","A1ADI35KR2J6SX","7","26","25","""long""","""2-2""","""2-5""","""right""","""simple""","""mipatorun""",0.365537163309983,0.362726450020568,7.28993416391881,7.30024971724876,1.00774885120524,0.998586958839836
"425","A1ADXNFXT6EZ7Y","0","38","13","""long""","""1-3""","""3-8""","""right""","""complex""","""tiburalex""",0.240463209407226,0.592708884510742,7.12022004272548,7.37820860586072,0.405702049844788,0.965033712528769
"426","A1ADXNFXT6EZ7Y","1","11","17","""long""","""1-1""","""1-7""","""left""","""simple""","""tupabugorn""",0.226620320855615,0.198905525846702,7.21094692940482,7.04719236357878,1.139336475902,1.02323685197985
"427","A1ADXNFXT6EZ7Y","2","56","51","""long""","""5-5""","""5-1""","""right""","""simple""","""fepolopus""",0.643812070282659,0.598802900536869,7.55152734409631,7.46635694988485,1.07516525004377,1.01140722239549
"428","A1ADXNFXT6EZ7Y","3","42","28","""short""","""2-4""","""2-8""","""right""","""simple""","""vatrus""",0.388259920156472,0.601591200602591,7.14928546016887,7.38357413673939,0.645388296516915,0.968268934227295
"429","A1ADXNFXT6EZ7Y","4","55","26","""short""","""2-5""","""5-5""","""left""","""complex""","""gronan""",0.362726450020568,0.654049197860963,7.30024971724876,7.41937065134264,0.554585880094109,0.983944603970915
"430","A1ADXNFXT6EZ7Y","5","23","22","""short""","""2-2""","""2-2""","""left""","""simple""","""ratum""",0.400489205783323,0.393164349376114,7.22323860108545,7.2537688186413,1.01863052033795,0.99579112343953
"431","A1ADXNFXT6EZ7Y","6","44","45","""short""","""4-4""","""4-5""","""left""","""simple""","""torun""",0.60023659050397,0.599862745098039,7.45011405562092,7.44415965744716,1.00062321824282,1.00079987513
"432","A1ADXNFXT6EZ7Y","7","57","44","""long""","""4-5""","""4-4""","""left""","""simple""","""pakuwugnum""",0.599862745098039,0.657452317290553,7.44415965744716,7.53194766740618,0.912404944544346,0.98834458046769
"433","A1APYLD4DUK33J","0","58","52","""short""","""5-5""","""5-2""","""right""","""simple""","""gronan""",0.732388591800357,0.627812012463534,7.40911860957558,7.5809576218774,1.16657307802453,0.977332809273868
"434","A1APYLD4DUK33J","1","22","14","""long""","""1-2""","""2-2""","""left""","""complex""","""pakuwugnum""",0.205391265597148,0.400489205783323,7.106017880143,7.22323860108545,0.512850939878442,0.983771722434195
"435","A1APYLD4DUK33J","2","47","46","""long""","""4-4""","""4-6""","""right""","""simple""","""fepolopus""",0.614648336563144,0.596326967150497,7.4808403912451,7.40403330391097,1.03072369760535,1.01037368204348
"436","A1APYLD4DUK33J","3","21","28","""long""","""2-2""","""2-1""","""left""","""complex""","""mipatorun""",0.388259920156472,0.396717626087868,7.14928546016887,7.25000948926994,0.978680791133987,0.986107048652813
"437","A1APYLD4DUK33J","4","36","37","""short""","""3-3""","""3-6""","""left""","""complex""","""ratum""",0.491521184697655,0.52237068011997,7.4576421040624,7.37717323948312,0.940943286833729,1.0109078182072
"438","A1APYLD4DUK33J","5","44","13","""short""","""1-4""","""1-3""","""left""","""simple""","""bugorn""",0.240463209407226,0.599862745098039,7.12022004272548,7.44415965744716,0.400863716528896,0.956484058694575
"439","A1APYLD4DUK33J","6","43","35","""long""","""3-4""","""3-5""","""right""","""simple""","""binivatrus""",0.545940690325717,0.59194499618029,7.38057144653556,7.51389426853832,0.922282803045165,0.982256494803101
"440","A1APYLD4DUK33J","7","55","21","""short""","""2-5""","""5-5""","""left""","""complex""","""ralex""",0.396717626087868,0.654049197860963,7.25000948926994,7.41937065134264,0.606556245899107,0.977173109414334
"441","A1AULY5MSR13MZ","0","32","24","""short""","""2-3""","""2-4""","""left""","""simple""","""bugorn""",0.409232560903149,0.500260812458955,7.29336768842468,7.34357497749828,0.818038412586485,0.993163099821621
"442","A1AULY5MSR13MZ","1","55","48","""long""","""4-5""","""5-5""","""left""","""complex""","""gaburatum""",0.59644761338879,0.654049197860963,7.48492849833601,7.41937065134264,0.91193080786498,1.00883603880627
"443","A1AULY5MSR13MZ","2","23","16","""long""","""1-2""","""2-3""","""left""","""complex""","""kibagronan""",0.0961516339869281,0.393164349376114,7.07781498740677,7.2537688186413,0.244558373971355,0.975743115663908
"444","A1AULY5MSR13MZ","3","54","27","""short""","""2-5""","""2-7""","""right""","""simple""","""torun""",0.498480635229298,0.614266488413547,7.25324083665048,7.52245949482209,0.811505502305218,0.964211351572325
"445","A1AULY5MSR13MZ","4","38","12","""short""","""1-3""","""3-8""","""right""","""complex""","""vatrus""",0.067770971422087,0.592708884510742,7.12566153316537,7.37820860586072,0.114341075683435,0.965771220876739
"446","A1AULY5MSR13MZ","5","17","13","""long""","""1-1""","""1-7""","""left""","""complex""","""pakuwugnum""",0.240463209407226,0.226620320855615,7.12022004272548,7.21094692940482,1.06108405680191,0.987418173012843
"447","A1AULY5MSR13MZ","6","31","35","""short""","""3-3""","""3-5""","""right""","""simple""","""ralex""",0.545940690325717,0.589474738918958,7.38057144653556,7.26311607655564,0.926147728275722,1.01617148462752
"448","A1AULY5MSR13MZ","7","46","21","""long""","""2-4""","""2-1""","""right""","""simple""","""fepolopus""",0.396717626087868,0.614648336563144,7.25000948926994,7.4808403912451,0.645438379132606,0.969143720504276
"449","A1AYTEFEX5B89X","0","56","48","""short""","""4-5""","""4-8""","""left""","""simple""","""lopus""",0.59644761338879,0.598802900536869,7.48492849833601,7.46635694988485,0.996066673782029,1.00248736412896
"450","A1AYTEFEX5B89X","1","25","21","""long""","""2-2""","""2-5""","""right""","""complex""","""tiburalex""",0.396717626087868,0.365537163309983,7.25000948926994,7.28993416391881,1.08530039051445,0.994523314785684
"451","A1AYTEFEX5B89X","2","44","46","""long""","""4-4""","""4-6""","""left""","""simple""","""pakuwugnum""",0.614648336563144,0.599862745098039,7.4808403912451,7.44415965744716,1.02464829093977,1.00492745124848
"452","A1AYTEFEX5B89X","3","33","22","""short""","""2-3""","""3-3""","""right""","""complex""","""bugorn""",0.400489205783323,0.437312451087946,7.22323860108545,7.35231805220081,0.915796485526506,0.982443706841991
"453","A1AYTEFEX5B89X","4","51","53","""short""","""5-5""","""5-1""","""left""","""complex""","""vatrus""",0.650860276977924,0.643812070282659,7.49631198228932,7.55152734409631,1.01094761502712,0.992688186205118
"454","A1AYTEFEX5B89X","5","42","27","""long""","""2-4""","""4-2""","""right""","""complex""","""gaburatum""",0.498480635229298,0.601591200602591,7.25324083665048,7.38357413673939,0.82860360113311,0.982348210003013
"455","A1AYTEFEX5B89X","6","47","34","""long""","""3-4""","""4-7""","""right""","""complex""","""kibagronan""",0.454706120023767,0.596326967150497,7.34365297144576,7.40403330391097,0.762511415837096,0.991844940455182
"456","A1AYTEFEX5B89X","7","58","25","""short""","""2-5""","""2-5""","""right""","""simple""","""torun""",0.365537163309983,0.627812012463534,7.28993416391881,7.5809576218774,0.582239836214053,0.961611253818549
"457","A1B3EOMZAXLAJ1","0","51","13","""short""","""1-5""","""5-1""","""left""","""complex""","""bugorn""",0.240463209407226,0.643812070282659,7.12022004272548,7.55152734409631,0.373499069847593,0.942884759371491
"458","A1B3EOMZAXLAJ1","1","28","24","""long""","""2-2""","""2-8""","""left""","""complex""","""fepolopus""",0.409232560903149,0.388259920156472,7.29336768842468,7.14928546016887,1.05401701194969,1.02015337463563
"459","A1B3EOMZAXLAJ1","2","45","47","""short""","""4-4""","""4-7""","""left""","""simple""","""ralex""",0.596326967150497,0.60023659050397,7.40403330391097,7.45011405562092,0.993486529453011,0.993814758892827
"460","A1B3EOMZAXLAJ1","3","36","31","""short""","""3-3""","""3-1""","""right""","""simple""","""wugnum""",0.589474738918958,0.52237068011997,7.26311607655564,7.37717323948312,1.12846061494795,0.984539177917493
"461","A1B3EOMZAXLAJ1","4","34","28","""short""","""2-3""","""3-4""","""right""","""complex""","""torun""",0.388259920156472,0.454706120023767,7.14928546016887,7.34365297144576,0.853870011989674,0.973532584936591
"462","A1B3EOMZAXLAJ1","5","42","26","""long""","""2-4""","""2-6""","""left""","""simple""","""binivatrus""",0.362726450020568,0.601591200602591,7.30024971724876,7.38357413673939,0.60294507242998,0.988714893634504
"463","A1B3EOMZAXLAJ1","6","17","15","""long""","""1-1""","""1-7""","""left""","""complex""","""kibagronan""",0.171708853238265,0.226620320855615,7.13330511343712,7.21094692940482,0.757693981678124,0.989232784996504
"464","A1B3EOMZAXLAJ1","7","53","52","""long""","""5-5""","""5-2""","""left""","""simple""","""gaburatum""",0.732388591800357,0.650860276977924,7.40911860957558,7.49631198228932,1.12526239149359,0.988368497346463
"465","A1B3VBDS79ZE38","0","35","22","""short""","""2-3""","""3-5""","""right""","""complex""","""ralex""",0.400489205783323,0.545940690325717,7.22323860108545,7.38057144653556,0.733576399195276,0.978682836879255
"466","A1B3VBDS79ZE38","1","53","31","""long""","""3-5""","""3-1""","""right""","""simple""","""kibagronan""",0.589474738918958,0.650860276977924,7.26311607655564,7.49631198228932,0.905685536158403,0.968891915613354
"467","A1B3VBDS79ZE38","2","52","47","""long""","""4-5""","""4-7""","""right""","""simple""","""binivatrus""",0.596326967150497,0.732388591800357,7.40403330391097,7.40911860957558,0.814222086235132,0.999313642292345
"468","A1B3VBDS79ZE38","3","54","56","""short""","""5-5""","""5-4""","""left""","""complex""","""ratum""",0.598802900536869,0.614266488413547,7.46635694988485,7.52245949482209,0.974825929513727,0.992541994413415
